#Digilent WaveForms Oscilloscope Acquisition
#Device Name: Discovery2
#Serial Number: SN:210321A36376
#Date Time: 2019-04-09 16:56:31.763
#Sample rate: 400000Hz
#Samples: 8192
#Trigger: Source: Channel 1 Type: Edge Condition: Either Level: 3 V Hyst.: Auto HoldOff: 0 s
#Our λ: Function: C1/5*(1.36-0.65)+0.65

Time (s),Our λ (λ)
-0.0102375,1.20195
-0.010235,1.20144
-0.0102325,1.20144
-0.01023,1.20144
-0.0102275,1.20195
-0.010225,1.20298
-0.0102225,1.20247
-0.01022,1.2035
-0.0102175,1.20298
-0.010215,1.20298
-0.0102125,1.20247
-0.01021,1.20298
-0.0102075,1.2035
-0.010205,1.2035
-0.0102025,1.2035
-0.0102,1.20402
-0.0101975,1.2035
-0.010195,1.2035
-0.0101925,1.2035
-0.01019,1.20505
-0.0101875,1.20453
-0.010185,1.20453
-0.0101825,1.20505
-0.01018,1.20505
-0.0101775,1.20505
-0.010175,1.20505
-0.0101725,1.20557
-0.01017,1.20557
-0.0101675,1.20557
-0.010165,1.20608
-0.0101625,1.20557
-0.01016,1.20557
-0.0101575,1.20557
-0.010155,1.20712
-0.0101525,1.2066
-0.01015,1.20608
-0.0101475,1.20712
-0.010145,1.20608
-0.0101425,1.2066
-0.01014,1.2066
-0.0101375,1.20712
-0.010135,1.20763
-0.0101325,1.20763
-0.01013,1.20763
-0.0101275,1.20763
-0.010125,1.20763
-0.0101225,1.20815
-0.01012,1.20815
-0.0101175,1.20866
-0.010115,1.20866
-0.0101125,1.20866
-0.01011,1.20918
-0.0101075,1.20866
-0.010105,1.20866
-0.0101025,1.20918
-0.0101,1.2097
-0.0100975,1.2097
-0.010095,1.2097
-0.0100925,1.2097
-0.01009,1.20918
-0.0100875,1.20918
-0.010085,1.21021
-0.0100825,1.21021
-0.01008,1.21021
-0.0100775,1.21073
-0.010075,1.21073
-0.0100725,1.21125
-0.01007,1.21125
-0.0100675,1.21176
-0.010065,1.21176
-0.0100625,1.21176
-0.01006,1.21125
-0.0100575,1.21176
-0.010055,1.21176
-0.0100525,1.21228
-0.01005,1.2128
-0.0100475,1.2128
-0.010045,1.2128
-0.0100425,1.2128
-0.01004,1.21228
-0.0100375,1.2128
-0.010035,1.2128
-0.0100325,1.21331
-0.01003,1.21331
-0.0100275,1.21434
-0.010025,1.21331
-0.0100225,1.21383
-0.01002,1.21331
-0.0100175,1.21383
-0.010015,1.21486
-0.0100125,1.21486
-0.01001,1.21486
-0.0100075,1.21383
-0.010005,1.21434
-0.0100025,1.21538
-0.01,1.21538
-0.0099975,1.21589
-0.009995,1.21486
-0.0099925,1.21486
-0.00999,1.21538
-0.0099875,1.21589
-0.009985,1.21538
-0.0099825,1.21641
-0.00998,1.21693
-0.0099775,1.21693
-0.009975,1.21693
-0.0099725,1.21641
-0.00997,1.21693
-0.0099675,1.21693
-0.009965,1.21744
-0.0099625,1.21796
-0.00996,1.21796
-0.0099575,1.21744
-0.009955,1.21796
-0.0099525,1.21796
-0.00995,1.21796
-0.0099475,1.21848
-0.009945,1.21899
-0.0099425,1.21899
-0.00994,1.21796
-0.0099375,1.21899
-0.009935,1.21848
-0.0099325,1.21848
-0.00993,1.21951
-0.0099275,1.22002
-0.009925,1.21899
-0.0099225,1.22002
-0.00992,1.21951
-0.0099175,1.22002
-0.009915,1.21951
-0.0099125,1.22002
-0.00991,1.22054
-0.0099075,1.22054
-0.009905,1.22106
-0.0099025,1.22106
-0.0099,1.22054
-0.0098975,1.22106
-0.009895,1.22157
-0.0098925,1.22157
-0.00989,1.22106
-0.0098875,1.22157
-0.009885,1.22106
-0.0098825,1.22157
-0.00988,1.22106
-0.0098775,1.22261
-0.009875,1.22261
-0.0098725,1.22261
-0.00987,1.22209
-0.0098675,1.22209
-0.009865,1.22261
-0.0098625,1.22261
-0.00986,1.22312
-0.0098575,1.22312
-0.009855,1.22364
-0.0098525,1.22364
-0.00985,1.22261
-0.0098475,1.22364
-0.009845,1.22364
-0.0098425,1.22467
-0.00984,1.22416
-0.0098375,1.22416
-0.009835,1.22467
-0.0098325,1.22416
-0.00983,1.22416
-0.0098275,1.22416
-0.009825,1.2257
-0.0098225,1.2257
-0.00982,1.22622
-0.0098175,1.2257
-0.009815,1.22519
-0.0098125,1.2257
-0.00981,1.22622
-0.0098075,1.22622
-0.009805,1.22674
-0.0098025,1.22674
-0.0098,1.22674
-0.0097975,1.22674
-0.009795,1.22622
-0.0097925,1.22674
-0.00979,1.22674
-0.0097875,1.22777
-0.009785,1.22725
-0.0097825,1.22725
-0.00978,1.22777
-0.0097775,1.22725
-0.009775,1.22777
-0.0097725,1.22829
-0.00977,1.2288
-0.0097675,1.2288
-0.009765,1.22829
-0.0097625,1.22829
-0.00976,1.2288
-0.0097575,1.2288
-0.009755,1.22932
-0.0097525,1.22932
-0.00975,1.22984
-0.0097475,1.22984
-0.009745,1.22984
-0.0097425,1.22984
-0.00974,1.22984
-0.0097375,1.23087
-0.009735,1.23087
-0.0097325,1.23087
-0.00973,1.23035
-0.0097275,1.23087
-0.009725,1.23138
-0.0097225,1.23087
-0.00972,1.23138
-0.0097175,1.23138
-0.009715,1.23087
-0.0097125,1.23087
-0.00971,1.23138
-0.0097075,1.23138
-0.009705,1.2319
-0.0097025,1.23293
-0.0097,1.23345
-0.0096975,1.23293
-0.009695,1.23293
-0.0096925,1.2319
-0.00969,1.23242
-0.0096875,1.23345
-0.009685,1.23397
-0.0096825,1.23397
-0.00968,1.23345
-0.0096775,1.23397
-0.009675,1.23345
-0.0096725,1.23397
-0.00967,1.23345
-0.0096675,1.23448
-0.009665,1.23448
-0.0096625,1.23448
-0.00966,1.23448
-0.0096575,1.23448
-0.009655,1.235
-0.0096525,1.235
-0.00965,1.23552
-0.0096475,1.23552
-0.009645,1.23552
-0.0096425,1.23552
-0.00964,1.235
-0.0096375,1.235
-0.009635,1.23552
-0.0096325,1.23655
-0.00963,1.23655
-0.0096275,1.23706
-0.009625,1.23603
-0.0096225,1.23603
-0.00962,1.23603
-0.0096175,1.23706
-0.009615,1.2381
-0.0096125,1.23861
-0.00961,1.23758
-0.0096075,1.23758
-0.009605,1.23706
-0.0096025,1.23758
-0.0096,1.2381
-0.0095975,1.2381
-0.009595,1.2381
-0.0095925,1.23861
-0.00959,1.23861
-0.0095875,1.23861
-0.009585,1.23861
-0.0095825,1.23913
-0.00958,1.23965
-0.0095775,1.23913
-0.009575,1.23913
-0.0095725,1.23913
-0.00957,1.23913
-0.0095675,1.23965
-0.009565,1.23913
-0.0095625,1.23913
-0.00956,1.23913
-0.0095575,1.23965
-0.009555,1.23965
-0.0095525,1.23965
-0.00955,1.23965
-0.0095475,1.24016
-0.009545,1.24016
-0.0095425,1.23913
-0.00954,1.23913
-0.0095375,1.23965
-0.009535,1.23965
-0.0095325,1.23913
-0.00953,1.23861
-0.0095275,1.23913
-0.009525,1.23913
-0.0095225,1.23965
-0.00952,1.24016
-0.0095175,1.23965
-0.009515,1.24016
-0.0095125,1.24068
-0.00951,1.24068
-0.0095075,1.24068
-0.009505,1.24068
-0.0095025,1.24171
-0.0095,1.2412
-0.0094975,1.2412
-0.009495,1.2412
-0.0094925,1.24223
-0.00949,1.24171
-0.0094875,1.24171
-0.009485,1.24326
-0.0094825,1.24171
-0.00948,1.24223
-0.0094775,1.24274
-0.009475,1.24223
-0.0094725,1.24223
-0.00947,1.24378
-0.0094675,1.24326
-0.009465,1.24429
-0.0094625,1.24378
-0.00946,1.24326
-0.0094575,1.24326
-0.009455,1.24274
-0.0094525,1.24429
-0.00945,1.24481
-0.0094475,1.24481
-0.009445,1.24429
-0.0094425,1.24378
-0.00944,1.24481
-0.0094375,1.24481
-0.009435,1.24584
-0.0094325,1.24584
-0.00943,1.24533
-0.0094275,1.24533
-0.009425,1.24533
-0.0094225,1.24636
-0.00942,1.24636
-0.0094175,1.24688
-0.009415,1.24688
-0.0094125,1.24636
-0.00941,1.24636
-0.0094075,1.24636
-0.009405,1.24636
-0.0094025,1.24688
-0.0094,1.24842
-0.0093975,1.24791
-0.009395,1.24791
-0.0093925,1.24688
-0.00939,1.24791
-0.0093875,1.24739
-0.009385,1.24791
-0.0093825,1.24842
-0.00938,1.24842
-0.0093775,1.24842
-0.009375,1.24842
-0.0093725,1.24842
-0.00937,1.24842
-0.0093675,1.24842
-0.009365,1.24946
-0.0093625,1.24946
-0.00936,1.24946
-0.0093575,1.24997
-0.009355,1.24997
-0.0093525,1.24997
-0.00935,1.24997
-0.0093475,1.25049
-0.009345,1.25049
-0.0093425,1.25049
-0.00934,1.25101
-0.0093375,1.25049
-0.009335,1.25049
-0.0093325,1.25101
-0.00933,1.25256
-0.0093275,1.25152
-0.009325,1.25101
-0.0093225,1.25152
-0.00932,1.25152
-0.0093175,1.25256
-0.009315,1.25204
-0.0093125,1.25256
-0.00931,1.25307
-0.0093075,1.25256
-0.009305,1.25256
-0.0093025,1.25204
-0.0093,1.25256
-0.0092975,1.25307
-0.009295,1.25307
-0.0092925,1.25307
-0.00929,1.25359
-0.0092875,1.25359
-0.009285,1.25359
-0.0092825,1.25307
-0.00928,1.25411
-0.0092775,1.25359
-0.009275,1.25462
-0.0092725,1.25462
-0.00927,1.25462
-0.0092675,1.25411
-0.009265,1.25462
-0.0092625,1.25462
-0.00926,1.25514
-0.0092575,1.25514
-0.009255,1.25565
-0.0092525,1.25514
-0.00925,1.25617
-0.0092475,1.25565
-0.009245,1.25669
-0.0092425,1.25617
-0.00924,1.25617
-0.0092375,1.2572
-0.009235,1.25669
-0.0092325,1.2572
-0.00923,1.25669
-0.0092275,1.25669
-0.009225,1.2572
-0.0092225,1.25772
-0.00922,1.25772
-0.0092175,1.25772
-0.009215,1.25772
-0.0092125,1.2572
-0.00921,1.25824
-0.0092075,1.25875
-0.009205,1.25927
-0.0092025,1.25824
-0.0092,1.25875
-0.0091975,1.25927
-0.009195,1.25927
-0.0091925,1.25979
-0.00919,1.2603
-0.0091875,1.25979
-0.009185,1.25927
-0.0091825,1.25979
-0.00918,1.25927
-0.0091775,1.25927
-0.009175,1.2603
-0.0091725,1.26082
-0.00917,1.26082
-0.0091675,1.2603
-0.009165,1.26082
-0.0091625,1.2603
-0.00916,1.26082
-0.0091575,1.26133
-0.009155,1.26133
-0.0091525,1.26185
-0.00915,1.26185
-0.0091475,1.26133
-0.009145,1.26237
-0.0091425,1.26185
-0.00914,1.26288
-0.0091375,1.26237
-0.009135,1.26185
-0.0091325,1.26237
-0.00913,1.26288
-0.0091275,1.26288
-0.009125,1.26288
-0.0091225,1.26392
-0.00912,1.2634
-0.0091175,1.26288
-0.009115,1.26392
-0.0091125,1.26392
-0.00911,1.2634
-0.0091075,1.26443
-0.009105,1.26443
-0.0091025,1.26443
-0.0091,1.26443
-0.0090975,1.26443
-0.009095,1.26495
-0.0090925,1.26547
-0.00909,1.26547
-0.0090875,1.26598
-0.009085,1.26495
-0.0090825,1.26495
-0.00908,1.26547
-0.0090775,1.26547
-0.009075,1.26547
-0.0090725,1.26547
-0.00907,1.26701
-0.0090675,1.26701
-0.009065,1.2665
-0.0090625,1.2665
-0.00906,1.2665
-0.0090575,1.26701
-0.009055,1.26701
-0.0090525,1.26753
-0.00905,1.26701
-0.0090475,1.26753
-0.009045,1.26753
-0.0090425,1.26805
-0.00904,1.26753
-0.0090375,1.26805
-0.009035,1.26856
-0.0090325,1.26856
-0.00903,1.26908
-0.0090275,1.26856
-0.009025,1.26856
-0.0090225,1.26856
-0.00902,1.26908
-0.0090175,1.2696
-0.009015,1.2696
-0.0090125,1.26856
-0.00901,1.2696
-0.0090075,1.26908
-0.009005,1.27011
-0.0090025,1.27063
-0.009,1.27063
-0.0089975,1.27063
-0.008995,1.27063
-0.0089925,1.27063
-0.00899,1.27063
-0.0089875,1.27063
-0.008985,1.27115
-0.0089825,1.27166
-0.00898,1.27166
-0.0089775,1.27166
-0.008975,1.27166
-0.0089725,1.27115
-0.00897,1.27115
-0.0089675,1.27218
-0.008965,1.27218
-0.0089625,1.27269
-0.00896,1.27269
-0.0089575,1.27218
-0.008955,1.27218
-0.0089525,1.27321
-0.00895,1.27321
-0.0089475,1.27373
-0.008945,1.27373
-0.0089425,1.27373
-0.00894,1.27321
-0.0089375,1.27424
-0.008935,1.27373
-0.0089325,1.27476
-0.00893,1.27476
-0.0089275,1.27424
-0.008925,1.27476
-0.0089225,1.27476
-0.00892,1.27424
-0.0089175,1.27424
-0.008915,1.27528
-0.0089125,1.27579
-0.00891,1.27528
-0.0089075,1.27579
-0.008905,1.27579
-0.0089025,1.27528
-0.0089,1.27631
-0.0088975,1.27631
-0.008895,1.27683
-0.0088925,1.27683
-0.00889,1.27683
-0.0088875,1.27631
-0.008885,1.27631
-0.0088825,1.27631
-0.00888,1.27837
-0.0088775,1.27837
-0.008875,1.27786
-0.0088725,1.27734
-0.00887,1.27734
-0.0088675,1.27786
-0.008865,1.27734
-0.0088625,1.27889
-0.00886,1.27837
-0.0088575,1.27837
-0.008855,1.27837
-0.0088525,1.27837
-0.00885,1.27837
-0.0088475,1.27786
-0.008845,1.27941
-0.0088425,1.27992
-0.00884,1.27941
-0.0088375,1.27941
-0.008835,1.27941
-0.0088325,1.27992
-0.00883,1.27941
-0.0088275,1.28044
-0.008825,1.27992
-0.0088225,1.27992
-0.00882,1.28044
-0.0088175,1.28044
-0.008815,1.28044
-0.0088125,1.28096
-0.00881,1.28147
-0.0088075,1.28147
-0.008805,1.28147
-0.0088025,1.28147
-0.0088,1.28147
-0.0087975,1.28199
-0.008795,1.28199
-0.0087925,1.28199
-0.00879,1.28251
-0.0087875,1.28147
-0.008785,1.28251
-0.0087825,1.28251
-0.00878,1.28251
-0.0087775,1.28302
-0.008775,1.28405
-0.0087725,1.28354
-0.00877,1.28354
-0.0087675,1.28354
-0.008765,1.28354
-0.0087625,1.28405
-0.00876,1.28354
-0.0087575,1.28354
-0.008755,1.28354
-0.0087525,1.28302
-0.00875,1.28354
-0.0087475,1.28354
-0.008745,1.28302
-0.0087425,1.28302
-0.00874,1.28354
-0.0087375,1.28302
-0.008735,1.28354
-0.0087325,1.28302
-0.00873,1.28405
-0.0087275,1.28354
-0.008725,1.28354
-0.0087225,1.28354
-0.00872,1.28302
-0.0087175,1.28354
-0.008715,1.28354
-0.0087125,1.28405
-0.00871,1.28405
-0.0087075,1.28354
-0.008705,1.28405
-0.0087025,1.28405
-0.0087,1.28405
-0.0086975,1.28405
-0.008695,1.28457
-0.0086925,1.2856
-0.00869,1.2856
-0.0086875,1.28509
-0.008685,1.2856
-0.0086825,1.2856
-0.00868,1.2856
-0.0086775,1.2856
-0.008675,1.28664
-0.0086725,1.28612
-0.00867,1.28612
-0.0086675,1.28715
-0.008665,1.28664
-0.0086625,1.28715
-0.00866,1.28715
-0.0086575,1.28767
-0.008655,1.28767
-0.0086525,1.28715
-0.00865,1.28767
-0.0086475,1.28715
-0.008645,1.28819
-0.0086425,1.28819
-0.00864,1.28819
-0.0086375,1.2887
-0.008635,1.28819
-0.0086325,1.28819
-0.00863,1.2887
-0.0086275,1.2887
-0.008625,1.28922
-0.0086225,1.28973
-0.00862,1.28973
-0.0086175,1.2887
-0.008615,1.28922
-0.0086125,1.28973
-0.00861,1.28973
-0.0086075,1.29025
-0.008605,1.29077
-0.0086025,1.29025
-0.0086,1.29025
-0.0085975,1.29025
-0.008595,1.28973
-0.0085925,1.29077
-0.00859,1.29128
-0.0085875,1.2918
-0.008585,1.29128
-0.0085825,1.29128
-0.00858,1.29128
-0.0085775,1.29128
-0.008575,1.2918
-0.0085725,1.2918
-0.00857,1.29232
-0.0085675,1.2918
-0.008565,1.29232
-0.0085625,1.29232
-0.00856,1.2918
-0.0085575,1.29232
-0.008555,1.29283
-0.0085525,1.29335
-0.00855,1.29335
-0.0085475,1.29335
-0.008545,1.29335
-0.0085425,1.29335
-0.00854,1.29335
-0.0085375,1.29387
-0.008535,1.2949
-0.0085325,1.29438
-0.00853,1.29387
-0.0085275,1.29438
-0.008525,1.29438
-0.0085225,1.29438
-0.00852,1.29541
-0.0085175,1.29541
-0.008515,1.29541
-0.0085125,1.29541
-0.00851,1.29541
-0.0085075,1.29593
-0.008505,1.2949
-0.0085025,1.29593
-0.0085,1.29645
-0.0084975,1.29645
-0.008495,1.29593
-0.0084925,1.29645
-0.00849,1.29645
-0.0084875,1.29593
-0.008485,1.29645
-0.0084825,1.29696
-0.00848,1.29748
-0.0084775,1.29748
-0.008475,1.29748
-0.0084725,1.29645
-0.00847,1.298
-0.0084675,1.298
-0.008465,1.298
-0.0084625,1.29851
-0.00846,1.29851
-0.0084575,1.298
-0.008455,1.29851
-0.0084525,1.29903
-0.00845,1.29903
-0.0084475,1.29955
-0.008445,1.29955
-0.0084425,1.29955
-0.00844,1.29903
-0.0084375,1.29955
-0.008435,1.29851
-0.0084325,1.30006
-0.00843,1.30058
-0.0084275,1.30006
-0.008425,1.30006
-0.0084225,1.30006
-0.00842,1.30006
-0.0084175,1.30006
-0.008415,1.30109
-0.0084125,1.30109
-0.00841,1.30161
-0.0084075,1.30213
-0.008405,1.30109
-0.0084025,1.30161
-0.0084,1.30109
-0.0083975,1.30213
-0.008395,1.30264
-0.0083925,1.30213
-0.00839,1.30264
-0.0083875,1.30213
-0.008385,1.30264
-0.0083825,1.30213
-0.00838,1.30368
-0.0083775,1.30368
-0.008375,1.30316
-0.0083725,1.30316
-0.00837,1.30316
-0.0083675,1.30316
-0.008365,1.30316
-0.0083625,1.30419
-0.00836,1.30471
-0.0083575,1.30419
-0.008355,1.30419
-0.0083525,1.30471
-0.00835,1.30419
-0.0083475,1.30471
-0.008345,1.30574
-0.0083425,1.30523
-0.00834,1.30523
-0.0083375,1.30523
-0.008335,1.30523
-0.0083325,1.30523
-0.00833,1.30523
-0.0083275,1.30677
-0.008325,1.30626
-0.0083225,1.30626
-0.00832,1.30677
-0.0083175,1.30626
-0.008315,1.30626
-0.0083125,1.30729
-0.00831,1.30781
-0.0083075,1.30677
-0.008305,1.30781
-0.0083025,1.30781
-0.0083,1.30781
-0.0082975,1.30729
-0.008295,1.30832
-0.0082925,1.30832
-0.00829,1.30832
-0.0082875,1.30884
-0.008285,1.30884
-0.0082825,1.30884
-0.00828,1.30884
-0.0082775,1.30936
-0.008275,1.30936
-0.0082725,1.30884
-0.00827,1.30884
-0.0082675,1.30884
-0.008265,1.30884
-0.0082625,1.30936
-0.00826,1.31039
-0.0082575,1.31039
-0.008255,1.30987
-0.0082525,1.31039
-0.00825,1.31091
-0.0082475,1.31039
-0.008245,1.31039
-0.0082425,1.31091
-0.00824,1.31091
-0.0082375,1.31091
-0.008235,1.31194
-0.0082325,1.31142
-0.00823,1.31142
-0.0082275,1.31091
-0.008225,1.31194
-0.0082225,1.31245
-0.00822,1.31194
-0.0082175,1.31194
-0.008215,1.31297
-0.0082125,1.31194
-0.00821,1.31245
-0.0082075,1.31349
-0.008205,1.314
-0.0082025,1.314
-0.0082,1.31349
-0.0081975,1.31349
-0.008195,1.31349
-0.0081925,1.31297
-0.00819,1.314
-0.0081875,1.314
-0.008185,1.31452
-0.0081825,1.31504
-0.00818,1.314
-0.0081775,1.314
-0.008175,1.31452
-0.0081725,1.31504
-0.00817,1.31452
-0.0081675,1.31555
-0.008165,1.31504
-0.0081625,1.31504
-0.00816,1.31504
-0.0081575,1.31555
-0.008155,1.31659
-0.0081525,1.31659
-0.00815,1.31607
-0.0081475,1.31659
-0.008145,1.31607
-0.0081425,1.31607
-0.00814,1.31659
-0.0081375,1.31659
-0.008135,1.31762
-0.0081325,1.3171
-0.00813,1.31762
-0.0081275,1.31762
-0.008125,1.31762
-0.0081225,1.31762
-0.00812,1.31813
-0.0081175,1.31865
-0.008115,1.31865
-0.0081125,1.31865
-0.00811,1.31865
-0.0081075,1.31865
-0.008105,1.31865
-0.0081025,1.31968
-0.0081,1.31968
-0.0080975,1.31917
-0.008095,1.31917
-0.0080925,1.3202
-0.00809,1.31917
-0.0080875,1.3202
-0.008085,1.3202
-0.0080825,1.32072
-0.00808,1.32072
-0.0080775,1.32072
-0.008075,1.32072
-0.0080725,1.32072
-0.00807,1.32072
-0.0080675,1.32227
-0.008065,1.32072
-0.0080625,1.32175
-0.00806,1.32175
-0.0080575,1.32175
-0.008055,1.32123
-0.0080525,1.32175
-0.00805,1.32278
-0.0080475,1.32175
-0.008045,1.32227
-0.0080425,1.32175
-0.00804,1.32278
-0.0080375,1.32278
-0.008035,1.32278
-0.0080325,1.3233
-0.00803,1.32381
-0.0080275,1.3233
-0.008025,1.3233
-0.0080225,1.3233
-0.00802,1.32278
-0.0080175,1.32381
-0.008015,1.32381
-0.0080125,1.32381
-0.00801,1.32485
-0.0080075,1.32485
-0.008005,1.32536
-0.0080025,1.32485
-0.008,1.32536
-0.0079975,1.32536
-0.007995,1.32536
-0.0079925,1.32588
-0.00799,1.32588
-0.0079875,1.32536
-0.007985,1.32588
-0.0079825,1.3264
-0.00798,1.32536
-0.0079775,1.32691
-0.007975,1.3264
-0.0079725,1.32588
-0.00797,1.3264
-0.0079675,1.3264
-0.007965,1.32691
-0.0079625,1.32743
-0.00796,1.32691
-0.0079575,1.32691
-0.007955,1.32691
-0.0079525,1.32691
-0.00795,1.32795
-0.0079475,1.32846
-0.007945,1.32795
-0.0079425,1.32846
-0.00794,1.32846
-0.0079375,1.32795
-0.007935,1.32898
-0.0079325,1.32846
-0.00793,1.32949
-0.0079275,1.32898
-0.007925,1.32898
-0.0079225,1.32949
-0.00792,1.32898
-0.0079175,1.32898
-0.007915,1.32898
-0.0079125,1.33001
-0.00791,1.33001
-0.0079075,1.33001
-0.007905,1.33053
-0.0079025,1.33001
-0.0079,1.33001
-0.0078975,1.33001
-0.007895,1.33156
-0.0078925,1.33156
-0.00789,1.33053
-0.0078875,1.33104
-0.007885,1.33156
-0.0078825,1.33104
-0.00788,1.33156
-0.0078775,1.33208
-0.007875,1.33208
-0.0078725,1.33208
-0.00787,1.33208
-0.0078675,1.33208
-0.007865,1.33208
-0.0078625,1.33259
-0.00786,1.33363
-0.0078575,1.33363
-0.007855,1.33311
-0.0078525,1.33311
-0.00785,1.33363
-0.0078475,1.33311
-0.007845,1.33311
-0.0078425,1.33414
-0.00784,1.33414
-0.0078375,1.33414
-0.007835,1.33363
-0.0078325,1.33414
-0.00783,1.33466
-0.0078275,1.33363
-0.007825,1.33466
-0.0078225,1.33517
-0.00782,1.33517
-0.0078175,1.33517
-0.007815,1.33517
-0.0078125,1.33466
-0.00781,1.33517
-0.0078075,1.33569
-0.007805,1.33621
-0.0078025,1.33569
-0.0078,1.33569
-0.0077975,1.33621
-0.007795,1.33517
-0.0077925,1.33569
-0.00779,1.33724
-0.0077875,1.33724
-0.007785,1.33724
-0.0077825,1.33724
-0.00778,1.33724
-0.0077775,1.33776
-0.007775,1.33776
-0.0077725,1.33879
-0.00777,1.33827
-0.0077675,1.33776
-0.007765,1.33827
-0.0077625,1.33776
-0.00776,1.33827
-0.0077575,1.33879
-0.007755,1.33879
-0.0077525,1.33931
-0.00775,1.33879
-0.0077475,1.33931
-0.007745,1.33931
-0.0077425,1.33931
-0.00774,1.33931
-0.0077375,1.34034
-0.007735,1.34034
-0.0077325,1.33982
-0.00773,1.34034
-0.0077275,1.34034
-0.007725,1.33931
-0.0077225,1.34034
-0.00772,1.34085
-0.0077175,1.34137
-0.007715,1.34189
-0.0077125,1.34189
-0.00771,1.34137
-0.0077075,1.34189
-0.007705,1.34189
-0.0077025,1.3424
-0.0077,1.3424
-0.0076975,1.34189
-0.007695,1.34292
-0.0076925,1.3424
-0.00769,1.34292
-0.0076875,1.34189
-0.007685,1.3424
-0.0076825,1.34189
-0.00768,1.34189
-0.0076775,1.34189
-0.007675,1.34189
-0.0076725,1.34137
-0.00767,1.34085
-0.0076675,1.34034
-0.007665,1.34085
-0.0076625,1.34034
-0.00766,1.34034
-0.0076575,1.34034
-0.007655,1.34034
-0.0076525,1.33982
-0.00765,1.34034
-0.0076475,1.34085
-0.007645,1.34034
-0.0076425,1.34034
-0.00764,1.34034
-0.0076375,1.33982
-0.007635,1.34034
-0.0076325,1.33982
-0.00763,1.34034
-0.0076275,1.34034
-0.007625,1.34034
-0.0076225,1.33982
-0.00762,1.33982
-0.0076175,1.34034
-0.007615,1.34034
-0.0076125,1.34034
-0.00761,1.33982
-0.0076075,1.34034
-0.007605,1.34034
-0.0076025,1.33982
-0.0076,1.32846
-0.0075975,1.08887
-0.007595,0.789891
-0.0075925,0.631367
-0.00759,0.63653
-0.0075875,0.640145
-0.007585,0.639629
-0.0075825,0.639629
-0.00758,0.639112
-0.0075775,0.639112
-0.007575,0.639112
-0.0075725,0.640145
-0.00757,0.639629
-0.0075675,0.640145
-0.007565,0.640661
-0.0075625,0.641178
-0.00756,0.641178
-0.0075575,0.641694
-0.007555,0.64221
-0.0075525,0.642727
-0.00755,0.643243
-0.0075475,0.643243
-0.007545,0.643759
-0.0075425,0.643243
-0.00754,0.644276
-0.0075375,0.644792
-0.007535,0.644792
-0.0075325,0.644792
-0.00753,0.645309
-0.0075275,0.645825
-0.007525,0.646341
-0.0075225,0.646341
-0.00752,0.646341
-0.0075175,0.645825
-0.007515,0.646341
-0.0075125,0.646858
-0.00751,0.646858
-0.0075075,0.646858
-0.007505,0.647374
-0.0075025,0.647374
-0.0075,0.646858
-0.0074975,0.647374
-0.007495,0.646858
-0.0074925,0.647374
-0.00749,0.648407
-0.0074875,0.64789
-0.007485,0.64789
-0.0074825,0.648407
-0.00748,0.648407
-0.0074775,0.64789
-0.007475,0.64789
-0.0074725,0.648407
-0.00747,0.648407
-0.0074675,0.648407
-0.007465,0.648407
-0.0074625,0.648407
-0.00746,0.648407
-0.0074575,0.648407
-0.007455,0.64789
-0.0074525,0.64789
-0.00745,0.648407
-0.0074475,0.648407
-0.007445,0.64789
-0.0074425,0.648407
-0.00744,0.648923
-0.0074375,0.648407
-0.007435,0.648923
-0.0074325,0.648923
-0.00743,0.648407
-0.0074275,0.648407
-0.007425,0.648407
-0.0074225,0.64789
-0.00742,0.648923
-0.0074175,0.648923
-0.007415,0.64944
-0.0074125,0.649956
-0.00741,0.64944
-0.0074075,0.650472
-0.007405,0.650472
-0.0074025,0.650472
-0.0074,0.650472
-0.0073975,0.650472
-0.007395,0.650989
-0.0073925,0.650989
-0.00739,0.651505
-0.0073875,0.651505
-0.007385,0.651505
-0.0073825,0.651505
-0.00738,0.651505
-0.0073775,0.652021
-0.007375,0.652021
-0.0073725,0.652021
-0.00737,0.652538
-0.0073675,0.652021
-0.007365,0.651505
-0.0073625,0.652538
-0.00736,0.652538
-0.0073575,0.653054
-0.007355,0.654087
-0.0073525,0.653054
-0.00735,0.65357
-0.0073475,0.65357
-0.007345,0.65357
-0.0073425,0.65357
-0.00734,0.654603
-0.0073375,0.654603
-0.007335,0.654087
-0.0073325,0.654087
-0.00733,0.654087
-0.0073275,0.654087
-0.007325,0.654087
-0.0073225,0.655636
-0.00732,0.65512
-0.0073175,0.65512
-0.007315,0.65512
-0.0073125,0.65512
-0.00731,0.655636
-0.0073075,0.655636
-0.007305,0.656152
-0.0073025,0.656152
-0.0073,0.656669
-0.0072975,0.656669
-0.007295,0.656669
-0.0072925,0.656669
-0.00729,0.656669
-0.0072875,0.656669
-0.007285,0.657701
-0.0072825,0.657701
-0.00728,0.657185
-0.0072775,0.657185
-0.007275,0.657701
-0.0072725,0.657701
-0.00727,0.658218
-0.0072675,0.658218
-0.007265,0.658734
-0.0072625,0.65925
-0.00726,0.658218
-0.0072575,0.658734
-0.007255,0.65925
-0.0072525,0.65925
-0.00725,0.65925
-0.0072475,0.659767
-0.007245,0.659767
-0.0072425,0.659767
-0.00724,0.659767
-0.0072375,0.65925
-0.007235,0.660283
-0.0072325,0.6608
-0.00723,0.661316
-0.0072275,0.6608
-0.007225,0.660283
-0.0072225,0.660283
-0.00722,0.660283
-0.0072175,0.661316
-0.007215,0.661316
-0.0072125,0.661316
-0.00721,0.6608
-0.0072075,0.661316
-0.007205,0.661316
-0.0072025,0.6608
-0.0072,0.662349
-0.0071975,0.661832
-0.007195,0.662349
-0.0071925,0.661832
-0.00719,0.663381
-0.0071875,0.661832
-0.007185,0.661832
-0.0071825,0.663381
-0.00718,0.663381
-0.0071775,0.663381
-0.007175,0.663381
-0.0071725,0.663381
-0.00717,0.662865
-0.0071675,0.663381
-0.007165,0.664931
-0.0071625,0.664931
-0.00716,0.664414
-0.0071575,0.663898
-0.007155,0.664931
-0.0071525,0.663898
-0.00715,0.664414
-0.0071475,0.665447
-0.007145,0.664931
-0.0071425,0.664931
-0.00714,0.664931
-0.0071375,0.664931
-0.007135,0.665447
-0.0071325,0.665963
-0.00713,0.66648
-0.0071275,0.665963
-0.007125,0.665963
-0.0071225,0.66648
-0.00712,0.66648
-0.0071175,0.665963
-0.007115,0.66648
-0.0071125,0.668029
-0.00711,0.667512
-0.0071075,0.668029
-0.007105,0.667512
-0.0071025,0.666996
-0.0071,0.666996
-0.0070975,0.667512
-0.007095,0.668029
-0.0070925,0.668029
-0.00709,0.668029
-0.0070875,0.668545
-0.007085,0.668029
-0.0070825,0.668545
-0.00708,0.668545
-0.0070775,0.669061
-0.007075,0.669578
-0.0070725,0.669578
-0.00707,0.670094
-0.0070675,0.668545
-0.007065,0.669061
-0.0070625,0.670094
-0.00706,0.670094
-0.0070575,0.670611
-0.007055,0.670094
-0.0070525,0.670094
-0.00705,0.670611
-0.0070475,0.670611
-0.007045,0.671127
-0.0070425,0.671127
-0.00704,0.671643
-0.0070375,0.671127
-0.007035,0.671643
-0.0070325,0.671127
-0.00703,0.671127
-0.0070275,0.67216
-0.007025,0.67216
-0.0070225,0.671643
-0.00702,0.67216
-0.0070175,0.673192
-0.007015,0.673192
-0.0070125,0.67216
-0.00701,0.673192
-0.0070075,0.673709
-0.007005,0.673709
-0.0070025,0.673192
-0.007,0.673709
-0.0069975,0.674225
-0.006995,0.673192
-0.0069925,0.674225
-0.00699,0.673709
-0.0069875,0.674225
-0.006985,0.674225
-0.0069825,0.674741
-0.00698,0.674225
-0.0069775,0.674225
-0.006975,0.674741
-0.0069725,0.675258
-0.00697,0.675774
-0.0069675,0.675258
-0.006965,0.675774
-0.0069625,0.675258
-0.00696,0.675258
-0.0069575,0.676291
-0.006955,0.676807
-0.0069525,0.676291
-0.00695,0.675774
-0.0069475,0.675774
-0.006945,0.675774
-0.0069425,0.676291
-0.00694,0.677323
-0.0069375,0.677323
-0.006935,0.677323
-0.0069325,0.67784
-0.00693,0.677323
-0.0069275,0.676807
-0.006925,0.676807
-0.0069225,0.678356
-0.00692,0.678356
-0.0069175,0.678356
-0.006915,0.678356
-0.0069125,0.67784
-0.00691,0.67784
-0.0069075,0.67784
-0.006905,0.678872
-0.0069025,0.678872
-0.0069,0.678872
-0.0068975,0.678872
-0.006895,0.678872
-0.0068925,0.679389
-0.00689,0.679389
-0.0068875,0.680422
-0.006885,0.680422
-0.0068825,0.680938
-0.00688,0.679905
-0.0068775,0.679905
-0.006875,0.679905
-0.0068725,0.679905
-0.00687,0.680938
-0.0068675,0.680938
-0.006865,0.681454
-0.0068625,0.680938
-0.00686,0.680938
-0.0068575,0.681454
-0.006855,0.681454
-0.0068525,0.681971
-0.00685,0.682487
-0.0068475,0.681971
-0.006845,0.682487
-0.0068425,0.681971
-0.00684,0.682487
-0.0068375,0.682487
-0.006835,0.683003
-0.0068325,0.681971
-0.00683,0.682487
-0.0068275,0.683003
-0.006825,0.683003
-0.0068225,0.683003
-0.00682,0.68352
-0.0068175,0.684036
-0.006815,0.684036
-0.0068125,0.684036
-0.00681,0.684036
-0.0068075,0.684036
-0.006805,0.684036
-0.0068025,0.684552
-0.0068,0.685069
-0.0067975,0.684552
-0.006795,0.685585
-0.0067925,0.685585
-0.00679,0.685069
-0.0067875,0.685069
-0.006785,0.685585
-0.0067825,0.686102
-0.00678,0.685585
-0.0067775,0.686102
-0.006775,0.685585
-0.0067725,0.686102
-0.00677,0.686102
-0.0067675,0.687134
-0.006765,0.687134
-0.0067625,0.687134
-0.00676,0.687134
-0.0067575,0.687134
-0.006755,0.687134
-0.0067525,0.687651
-0.00675,0.687651
-0.0067475,0.687651
-0.006745,0.687651
-0.0067425,0.688167
-0.00674,0.688167
-0.0067375,0.688683
-0.006735,0.688167
-0.0067325,0.688683
-0.00673,0.6892
-0.0067275,0.688683
-0.006725,0.6892
-0.0067225,0.6892
-0.00672,0.6892
-0.0067175,0.6892
-0.006715,0.689716
-0.0067125,0.690232
-0.00671,0.690749
-0.0067075,0.690232
-0.006705,0.689716
-0.0067025,0.689716
-0.0067,0.690232
-0.0066975,0.691265
-0.006695,0.691265
-0.0066925,0.690749
-0.00669,0.690749
-0.0066875,0.690749
-0.006685,0.691782
-0.0066825,0.690749
-0.00668,0.692298
-0.0066775,0.692298
-0.006675,0.692298
-0.0066725,0.692298
-0.00667,0.691782
-0.0066675,0.692298
-0.006665,0.691782
-0.0066625,0.692814
-0.00666,0.693331
-0.0066575,0.692814
-0.006655,0.692814
-0.0066525,0.693331
-0.00665,0.692814
-0.0066475,0.693331
-0.006645,0.694363
-0.0066425,0.694363
-0.00664,0.693847
-0.0066375,0.693331
-0.006635,0.693847
-0.0066325,0.693331
-0.00663,0.693847
-0.0066275,0.695396
-0.006625,0.695396
-0.0066225,0.695396
-0.00662,0.695396
-0.0066175,0.695396
-0.006615,0.695396
-0.0066125,0.695396
-0.00661,0.696429
-0.0066075,0.695913
-0.006605,0.696429
-0.0066025,0.695913
-0.0066,0.695913
-0.0065975,0.696429
-0.006595,0.696429
-0.0065925,0.697978
-0.00659,0.696945
-0.0065875,0.697978
-0.006585,0.697462
-0.0065825,0.696945
-0.00658,0.696945
-0.0065775,0.697462
-0.006575,0.698494
-0.0065725,0.697978
-0.00657,0.699011
-0.0065675,0.699011
-0.006565,0.698494
-0.0065625,0.698494
-0.00656,0.698494
-0.0065575,0.699011
-0.006555,0.699527
-0.0065525,0.699527
-0.00655,0.699527
-0.0065475,0.699527
-0.006545,0.699527
-0.0065425,0.699011
-0.00654,0.70056
-0.0065375,0.700043
-0.006535,0.700043
-0.0065325,0.699527
-0.00653,0.699527
-0.0065275,0.699527
-0.006525,0.700043
-0.0065225,0.701076
-0.00652,0.701593
-0.0065175,0.701593
-0.006515,0.701076
-0.0065125,0.701076
-0.00651,0.70056
-0.0065075,0.702109
-0.006505,0.702109
-0.0065025,0.702109
-0.0065,0.702625
-0.0064975,0.702109
-0.006495,0.702109
-0.0064925,0.702109
-0.00649,0.703142
-0.0064875,0.703142
-0.006485,0.703142
-0.0064825,0.703658
-0.00648,0.703142
-0.0064775,0.703142
-0.006475,0.702625
-0.0064725,0.703142
-0.00647,0.703658
-0.0064675,0.704174
-0.006465,0.703142
-0.0064625,0.704174
-0.00646,0.703658
-0.0064575,0.703658
-0.006455,0.705207
-0.0064525,0.705207
-0.00645,0.705207
-0.0064475,0.705723
-0.006445,0.704691
-0.0064425,0.705207
-0.00644,0.704691
-0.0064375,0.70624
-0.006435,0.70624
-0.0064325,0.70624
-0.00643,0.705723
-0.0064275,0.705207
-0.006425,0.705723
-0.0064225,0.70624
-0.00642,0.707273
-0.0064175,0.706756
-0.006415,0.707273
-0.0064125,0.707273
-0.00641,0.707273
-0.0064075,0.707273
-0.006405,0.707789
-0.0064025,0.708305
-0.0064,0.707789
-0.0063975,0.708305
-0.006395,0.708305
-0.0063925,0.708305
-0.00639,0.708305
-0.0063875,0.708305
-0.006385,0.708305
-0.0063825,0.708822
-0.00638,0.709338
-0.0063775,0.708822
-0.006375,0.709338
-0.0063725,0.709338
-0.00637,0.709338
-0.0063675,0.710887
-0.006365,0.710371
-0.0063625,0.710371
-0.00636,0.710371
-0.0063575,0.709854
-0.006355,0.709854
-0.0063525,0.709338
-0.00635,0.710887
-0.0063475,0.711404
-0.006345,0.710887
-0.0063425,0.710887
-0.00634,0.711404
-0.0063375,0.710887
-0.006335,0.71192
-0.0063325,0.712436
-0.00633,0.71192
-0.0063275,0.712953
-0.006325,0.712953
-0.0063225,0.712436
-0.00632,0.71192
-0.0063175,0.712953
-0.006315,0.712953
-0.0063125,0.712953
-0.00631,0.712436
-0.0063075,0.712436
-0.006305,0.712953
-0.0063025,0.713469
-0.0063,0.713469
-0.0062975,0.713985
-0.006295,0.713985
-0.0062925,0.714502
-0.00629,0.714502
-0.0062875,0.713985
-0.006285,0.713985
-0.0062825,0.714502
-0.00628,0.715018
-0.0062775,0.715534
-0.006275,0.715018
-0.0062725,0.715534
-0.00627,0.715534
-0.0062675,0.716051
-0.006265,0.715534
-0.0062625,0.716567
-0.00626,0.716051
-0.0062575,0.716567
-0.006255,0.716567
-0.0062525,0.716567
-0.00625,0.716567
-0.0062475,0.717084
-0.006245,0.716567
-0.0062425,0.716567
-0.00624,0.717084
-0.0062375,0.716567
-0.006235,0.7176
-0.0062325,0.717084
-0.00623,0.7176
-0.0062275,0.718116
-0.006225,0.718116
-0.0062225,0.718116
-0.00622,0.7176
-0.0062175,0.7176
-0.006215,0.7176
-0.0062125,0.718633
-0.00621,0.718633
-0.0062075,0.718633
-0.006205,0.718633
-0.0062025,0.718633
-0.0062,0.719149
-0.0061975,0.719149
-0.006195,0.719149
-0.0061925,0.720182
-0.00619,0.720182
-0.0061875,0.720182
-0.006185,0.720698
-0.0061825,0.720698
-0.00618,0.720698
-0.0061775,0.720698
-0.006175,0.721214
-0.0061725,0.721214
-0.00617,0.721214
-0.0061675,0.721214
-0.006165,0.720698
-0.0061625,0.720698
-0.00616,0.721731
-0.0061575,0.721731
-0.006155,0.721731
-0.0061525,0.721731
-0.00615,0.722247
-0.0061475,0.721731
-0.006145,0.721731
-0.0061425,0.722764
-0.00614,0.722764
-0.0061375,0.72328
-0.006135,0.722764
-0.0061325,0.72328
-0.00613,0.722764
-0.0061275,0.72328
-0.006125,0.723796
-0.0061225,0.724313
-0.00612,0.724313
-0.0061175,0.72328
-0.006115,0.72328
-0.0061125,0.723796
-0.00611,0.723796
-0.0061075,0.724829
-0.006105,0.724313
-0.0061025,0.725345
-0.0061,0.724829
-0.0060975,0.724829
-0.006095,0.724829
-0.0060925,0.724829
-0.00609,0.725862
-0.0060875,0.725862
-0.006085,0.725862
-0.0060825,0.725862
-0.00608,0.725862
-0.0060775,0.725862
-0.006075,0.726378
-0.0060725,0.726895
-0.00607,0.727411
-0.0060675,0.726895
-0.006065,0.726895
-0.0060625,0.726895
-0.00606,0.726895
-0.0060575,0.727411
-0.006055,0.728444
-0.0060525,0.728444
-0.00605,0.728444
-0.0060475,0.727927
-0.006045,0.728444
-0.0060425,0.728444
-0.00604,0.727927
-0.0060375,0.729476
-0.006035,0.729476
-0.0060325,0.728444
-0.00603,0.72896
-0.0060275,0.72896
-0.006025,0.72896
-0.0060225,0.729993
-0.00602,0.729993
-0.0060175,0.729993
-0.006015,0.729476
-0.0060125,0.729993
-0.00601,0.729993
-0.0060075,0.729993
-0.006005,0.729993
-0.0060025,0.730509
-0.006,0.731025
-0.0059975,0.731025
-0.005995,0.730509
-0.0059925,0.731025
-0.00599,0.731025
-0.0059875,0.731025
-0.005985,0.732058
-0.0059825,0.731025
-0.00598,0.731542
-0.0059775,0.732058
-0.005975,0.731542
-0.0059725,0.731025
-0.00597,0.732575
-0.0059675,0.733607
-0.005965,0.733091
-0.0059625,0.733091
-0.00596,0.733091
-0.0059575,0.732575
-0.005955,0.733091
-0.0059525,0.733607
-0.00595,0.734124
-0.0059475,0.734124
-0.005945,0.734124
-0.0059425,0.734124
-0.00594,0.733607
-0.0059375,0.733607
-0.005935,0.73464
-0.0059325,0.73464
-0.00593,0.73464
-0.0059275,0.735156
-0.005925,0.73464
-0.0059225,0.735156
-0.00592,0.735156
-0.0059175,0.735673
-0.005915,0.735673
-0.0059125,0.735673
-0.00591,0.736189
-0.0059075,0.736189
-0.005905,0.736189
-0.0059025,0.736189
-0.0059,0.736705
-0.0058975,0.736705
-0.005895,0.738255
-0.0058925,0.737222
-0.00589,0.736705
-0.0058875,0.736705
-0.005885,0.737738
-0.0058825,0.737738
-0.00588,0.737738
-0.0058775,0.737738
-0.005875,0.737738
-0.0058725,0.737738
-0.00587,0.737222
-0.0058675,0.737738
-0.005865,0.738771
-0.0058625,0.738255
-0.00586,0.738255
-0.0058575,0.739287
-0.005855,0.738771
-0.0058525,0.739287
-0.00585,0.738255
-0.0058475,0.739804
-0.005845,0.74032
-0.0058425,0.74032
-0.00584,0.74032
-0.0058375,0.740836
-0.005835,0.74032
-0.0058325,0.739804
-0.00583,0.741353
-0.0058275,0.741353
-0.005825,0.741353
-0.0058225,0.740836
-0.00582,0.741353
-0.0058175,0.741353
-0.005815,0.741869
-0.0058125,0.741869
-0.00581,0.742386
-0.0058075,0.741353
-0.005805,0.741869
-0.0058025,0.741869
-0.0058,0.741869
-0.0057975,0.741869
-0.005795,0.742386
-0.0057925,0.742386
-0.00579,0.742902
-0.0057875,0.742902
-0.005785,0.743418
-0.0057825,0.742386
-0.00578,0.743418
-0.0057775,0.743418
-0.005775,0.743935
-0.0057725,0.744451
-0.00577,0.743935
-0.0057675,0.743935
-0.005765,0.743935
-0.0057625,0.743935
-0.00576,0.744967
-0.0057575,0.744451
-0.005755,0.745484
-0.0057525,0.744967
-0.00575,0.745484
-0.0057475,0.745484
-0.005745,0.744967
-0.0057425,0.746
-0.00574,0.746
-0.0057375,0.746
-0.005735,0.746
-0.0057325,0.746
-0.00573,0.746
-0.0057275,0.746516
-0.005725,0.747033
-0.0057225,0.747549
-0.00572,0.747549
-0.0057175,0.747033
-0.005715,0.747033
-0.0057125,0.747033
-0.00571,0.747549
-0.0057075,0.747549
-0.005705,0.748066
-0.0057025,0.748582
-0.0057,0.748066
-0.0056975,0.748066
-0.005695,0.748066
-0.0056925,0.748066
-0.00569,0.748582
-0.0056875,0.748582
-0.005685,0.748582
-0.0056825,0.749098
-0.00568,0.749098
-0.0056775,0.749098
-0.005675,0.749615
-0.0056725,0.750131
-0.00567,0.750131
-0.0056675,0.749615
-0.005665,0.750131
-0.0056625,0.750647
-0.00566,0.750131
-0.0056575,0.75168
-0.005655,0.750647
-0.0056525,0.750647
-0.00565,0.750647
-0.0056475,0.751164
-0.005645,0.750647
-0.0056425,0.751164
-0.00564,0.751164
-0.0056375,0.75168
-0.005635,0.75168
-0.0056325,0.75168
-0.00563,0.752196
-0.0056275,0.752713
-0.005625,0.752196
-0.0056225,0.752196
-0.00562,0.752713
-0.0056175,0.753229
-0.005615,0.753229
-0.0056125,0.752713
-0.00561,0.752713
-0.0056075,0.753229
-0.005605,0.753746
-0.0056025,0.753229
-0.0056,0.753746
-0.0055975,0.753746
-0.005595,0.753746
-0.0055925,0.753746
-0.00559,0.754262
-0.0055875,0.754778
-0.005585,0.755295
-0.0055825,0.754778
-0.00558,0.755295
-0.0055775,0.755811
-0.005575,0.754778
-0.0055725,0.755295
-0.00557,0.756327
-0.0055675,0.756844
-0.005565,0.755811
-0.0055625,0.756327
-0.00556,0.755811
-0.0055575,0.755811
-0.005555,0.755811
-0.0055525,0.75736
-0.00555,0.75736
-0.0055475,0.756844
-0.005545,0.75736
-0.0055425,0.756844
-0.00554,0.756844
-0.0055375,0.756844
-0.005535,0.757877
-0.0055325,0.757877
-0.00553,0.758393
-0.0055275,0.758393
-0.005525,0.75736
-0.0055225,0.757877
-0.00552,0.757877
-0.0055175,0.759426
-0.005515,0.759426
-0.0055125,0.758909
-0.00551,0.759426
-0.0055075,0.758909
-0.005505,0.759426
-0.0055025,0.759942
-0.0055,0.760458
-0.0054975,0.760458
-0.005495,0.759942
-0.0054925,0.760458
-0.00549,0.760458
-0.0054875,0.760458
-0.005485,0.760458
-0.0054825,0.760975
-0.00548,0.760458
-0.0054775,0.760975
-0.005475,0.760975
-0.0054725,0.760458
-0.00547,0.760975
-0.0054675,0.761491
-0.005465,0.762007
-0.0054625,0.762007
-0.00546,0.761491
-0.0054575,0.761491
-0.005455,0.762007
-0.0054525,0.762524
-0.00545,0.762524
-0.0054475,0.762524
-0.005445,0.763557
-0.0054425,0.763557
-0.00544,0.762524
-0.0054375,0.763557
-0.005435,0.763557
-0.0054325,0.764073
-0.00543,0.764589
-0.0054275,0.763557
-0.005425,0.764073
-0.0054225,0.764073
-0.00542,0.763557
-0.0054175,0.764073
-0.005415,0.764073
-0.0054125,0.765106
-0.00541,0.764589
-0.0054075,0.765106
-0.005405,0.764589
-0.0054025,0.765106
-0.0054,0.765106
-0.0053975,0.766138
-0.005395,0.766138
-0.0053925,0.766138
-0.00539,0.765622
-0.0053875,0.766138
-0.005385,0.765622
-0.0053825,0.766655
-0.00538,0.767687
-0.0053775,0.767687
-0.005375,0.767171
-0.0053725,0.766655
-0.00537,0.767171
-0.0053675,0.766655
-0.005365,0.767171
-0.0053625,0.767687
-0.00536,0.768204
-0.0053575,0.768204
-0.005355,0.768204
-0.0053525,0.768204
-0.00535,0.768204
-0.0053475,0.768204
-0.005345,0.768204
-0.0053425,0.76872
-0.00534,0.769237
-0.0053375,0.76872
-0.005335,0.76872
-0.0053325,0.769237
-0.00533,0.769753
-0.0053275,0.770269
-0.005325,0.770786
-0.0053225,0.769753
-0.00532,0.770269
-0.0053175,0.769753
-0.005315,0.770269
-0.0053125,0.769753
-0.00531,0.771302
-0.0053075,0.770786
-0.005305,0.771302
-0.0053025,0.771818
-0.0053,0.771302
-0.0052975,0.771302
-0.005295,0.771302
-0.0052925,0.771818
-0.00529,0.771818
-0.0052875,0.771818
-0.005285,0.772335
-0.0052825,0.772335
-0.00528,0.772335
-0.0052775,0.772335
-0.005275,0.773368
-0.0052725,0.773368
-0.00527,0.772851
-0.0052675,0.772851
-0.005265,0.772851
-0.0052625,0.773368
-0.00526,0.773368
-0.0052575,0.7744
-0.005255,0.7744
-0.0052525,0.7744
-0.00525,0.773884
-0.0052475,0.7744
-0.005245,0.7744
-0.0052425,0.7744
-0.00524,0.774917
-0.0052375,0.775433
-0.005235,0.774917
-0.0052325,0.774917
-0.00523,0.774917
-0.0052275,0.774917
-0.005225,0.775433
-0.0052225,0.775949
-0.00522,0.775949
-0.0052175,0.775433
-0.005215,0.775433
-0.0052125,0.775949
-0.00521,0.775949
-0.0052075,0.775949
-0.005205,0.777498
-0.0052025,0.776982
-0.0052,0.776982
-0.0051975,0.777498
-0.005195,0.776982
-0.0051925,0.776982
-0.00519,0.776982
-0.0051875,0.777498
-0.005185,0.778015
-0.0051825,0.778531
-0.00518,0.778015
-0.0051775,0.778531
-0.005175,0.778015
-0.0051725,0.778531
-0.00517,0.779048
-0.0051675,0.778531
-0.005165,0.779048
-0.0051625,0.779564
-0.00516,0.779048
-0.0051575,0.779564
-0.005155,0.78008
-0.0051525,0.780597
-0.00515,0.780597
-0.0051475,0.780597
-0.005145,0.78008
-0.0051425,0.78008
-0.00514,0.779564
-0.0051375,0.780597
-0.005135,0.781113
-0.0051325,0.781113
-0.00513,0.781113
-0.0051275,0.781113
-0.005125,0.781113
-0.0051225,0.781113
-0.00512,0.781629
-0.0051175,0.781629
-0.005115,0.781629
-0.0051125,0.782146
-0.00511,0.782146
-0.0051075,0.782662
-0.005105,0.781629
-0.0051025,0.782662
-0.0051,0.783179
-0.0050975,0.782662
-0.005095,0.782662
-0.0050925,0.783695
-0.00509,0.784211
-0.0050875,0.783179
-0.005085,0.783179
-0.0050825,0.783695
-0.00508,0.783695
-0.0050775,0.784211
-0.005075,0.784211
-0.0050725,0.783695
-0.00507,0.783695
-0.0050675,0.784728
-0.005065,0.784728
-0.0050625,0.784728
-0.00506,0.785244
-0.0050575,0.784728
-0.005055,0.784211
-0.0050525,0.784728
-0.00505,0.78576
-0.0050475,0.78576
-0.005045,0.785244
-0.0050425,0.78576
-0.00504,0.78576
-0.0050375,0.786277
-0.005035,0.786277
-0.0050325,0.786793
-0.00503,0.786277
-0.0050275,0.786793
-0.005025,0.786277
-0.0050225,0.786277
-0.00502,0.787309
-0.0050175,0.786793
-0.005015,0.787826
-0.0050125,0.787826
-0.00501,0.788342
-0.0050075,0.787826
-0.005005,0.788342
-0.0050025,0.788342
-0.005,0.787309
-0.0049975,0.788859
-0.004995,0.788859
-0.0049925,0.788342
-0.00499,0.788859
-0.0049875,0.788859
-0.004985,0.788342
-0.0049825,0.788859
-0.00498,0.789891
-0.0049775,0.789891
-0.004975,0.789375
-0.0049725,0.789891
-0.00497,0.790408
-0.0049675,0.789891
-0.004965,0.790408
-0.0049625,0.79144
-0.00496,0.790924
-0.0049575,0.790924
-0.004955,0.790924
-0.0049525,0.790408
-0.00495,0.790924
-0.0049475,0.79144
-0.004945,0.791957
-0.0049425,0.791957
-0.00494,0.791957
-0.0049375,0.79144
-0.004935,0.791957
-0.0049325,0.791957
-0.00493,0.791957
-0.0049275,0.793506
-0.004925,0.792473
-0.0049225,0.792989
-0.00492,0.793506
-0.0049175,0.792989
-0.004915,0.792989
-0.0049125,0.793506
-0.00491,0.794022
-0.0049075,0.794022
-0.004905,0.794022
-0.0049025,0.794539
-0.0049,0.794022
-0.0048975,0.794022
-0.004895,0.794539
-0.0048925,0.795055
-0.00489,0.795055
-0.0048875,0.795055
-0.004885,0.794539
-0.0048825,0.794539
-0.00488,0.794539
-0.0048775,0.795571
-0.004875,0.795571
-0.0048725,0.796088
-0.00487,0.795571
-0.0048675,0.796088
-0.004865,0.795055
-0.0048625,0.795571
-0.00486,0.796604
-0.0048575,0.79712
-0.004855,0.79712
-0.0048525,0.79712
-0.00485,0.796604
-0.0048475,0.797637
-0.004845,0.79712
-0.0048425,0.797637
-0.00484,0.798153
-0.0048375,0.797637
-0.004835,0.798153
-0.0048325,0.798153
-0.00483,0.797637
-0.0048275,0.797637
-0.004825,0.798153
-0.0048225,0.799186
-0.00482,0.799702
-0.0048175,0.799186
-0.004815,0.799186
-0.0048125,0.799186
-0.00481,0.79867
-0.0048075,0.799186
-0.004805,0.799702
-0.0048025,0.799702
-0.0048,0.799702
-0.0047975,0.800219
-0.004795,0.799702
-0.0047925,0.800219
-0.00479,0.800735
-0.0047875,0.800735
-0.004785,0.801251
-0.0047825,0.801251
-0.00478,0.801251
-0.0047775,0.801251
-0.004775,0.800735
-0.0047725,0.801768
-0.00477,0.802284
-0.0047675,0.801768
-0.004765,0.8028
-0.0047625,0.802284
-0.00476,0.801768
-0.0047575,0.801251
-0.004755,0.8028
-0.0047525,0.8028
-0.00475,0.803317
-0.0047475,0.8028
-0.004745,0.8028
-0.0047425,0.8028
-0.00474,0.8028
-0.0047375,0.80435
-0.004735,0.803833
-0.0047325,0.803317
-0.00473,0.803833
-0.0047275,0.80435
-0.004725,0.803833
-0.0047225,0.803833
-0.00472,0.804866
-0.0047175,0.804866
-0.004715,0.804866
-0.0047125,0.80435
-0.00471,0.804866
-0.0047075,0.80435
-0.004705,0.804866
-0.0047025,0.805899
-0.0047,0.805899
-0.0046975,0.806415
-0.004695,0.805382
-0.0046925,0.805899
-0.00469,0.805382
-0.0046875,0.806415
-0.004685,0.806931
-0.0046825,0.806415
-0.00468,0.806931
-0.0046775,0.807448
-0.004675,0.806415
-0.0046725,0.806931
-0.00467,0.807448
-0.0046675,0.807448
-0.004665,0.807448
-0.0046625,0.80848
-0.00466,0.807964
-0.0046575,0.807964
-0.004655,0.807964
-0.0046525,0.807964
-0.00465,0.80848
-0.0046475,0.808997
-0.004645,0.80848
-0.0046425,0.80848
-0.00464,0.808997
-0.0046375,0.808997
-0.004635,0.809513
-0.0046325,0.81003
-0.00463,0.809513
-0.0046275,0.81003
-0.004625,0.81003
-0.0046225,0.809513
-0.00462,0.809513
-0.0046175,0.81003
-0.004615,0.810546
-0.0046125,0.810546
-0.00461,0.811062
-0.0046075,0.811062
-0.004605,0.811062
-0.0046025,0.811062
-0.0046,0.811062
-0.0045975,0.812095
-0.004595,0.811062
-0.0045925,0.812095
-0.00459,0.812095
-0.0045875,0.812611
-0.004585,0.812095
-0.0045825,0.812611
-0.00458,0.812611
-0.0045775,0.813128
-0.004575,0.812611
-0.0045725,0.812611
-0.00457,0.812611
-0.0045675,0.812611
-0.004565,0.813128
-0.0045625,0.813644
-0.00456,0.813644
-0.0045575,0.813128
-0.004555,0.813128
-0.0045525,0.813644
-0.00455,0.814161
-0.0045475,0.814677
-0.004545,0.814677
-0.0045425,0.814677
-0.00454,0.814677
-0.0045375,0.814161
-0.004535,0.814161
-0.0045325,0.814677
-0.00453,0.81571
-0.0045275,0.81571
-0.004525,0.816226
-0.0045225,0.816226
-0.00452,0.816226
-0.0045175,0.816742
-0.004515,0.816226
-0.0045125,0.816742
-0.00451,0.816742
-0.0045075,0.816742
-0.004505,0.816742
-0.0045025,0.816742
-0.0045,0.817259
-0.0044975,0.816742
-0.004495,0.817775
-0.0044925,0.817775
-0.00449,0.817775
-0.0044875,0.817259
-0.004485,0.818291
-0.0044825,0.817775
-0.00448,0.817259
-0.0044775,0.818808
-0.004475,0.818291
-0.0044725,0.818291
-0.00447,0.818808
-0.0044675,0.818808
-0.004465,0.819324
-0.0044625,0.819324
-0.00446,0.819841
-0.0044575,0.820357
-0.004455,0.819841
-0.0044525,0.819841
-0.00445,0.819841
-0.0044475,0.820357
-0.004445,0.820357
-0.0044425,0.82139
-0.00444,0.820873
-0.0044375,0.82139
-0.004435,0.820873
-0.0044325,0.820873
-0.00443,0.82139
-0.0044275,0.820873
-0.004425,0.821906
-0.0044225,0.821906
-0.00442,0.820873
-0.0044175,0.821906
-0.004415,0.821906
-0.0044125,0.822422
-0.00441,0.822422
-0.0044075,0.823455
-0.004405,0.822422
-0.0044025,0.822939
-0.0044,0.822422
-0.0043975,0.822939
-0.004395,0.822939
-0.0043925,0.823971
-0.00439,0.823455
-0.0043875,0.823971
-0.004385,0.824488
-0.0043825,0.823971
-0.00438,0.823971
-0.0043775,0.823455
-0.004375,0.824488
-0.0043725,0.824488
-0.00437,0.825004
-0.0043675,0.824488
-0.004365,0.825004
-0.0043625,0.825004
-0.00436,0.825521
-0.0043575,0.825521
-0.004355,0.826037
-0.0043525,0.826037
-0.00435,0.826037
-0.0043475,0.825521
-0.004345,0.826037
-0.0043425,0.825521
-0.00434,0.826553
-0.0043375,0.82707
-0.004335,0.826553
-0.0043325,0.826037
-0.00433,0.826553
-0.0043275,0.826553
-0.004325,0.826553
-0.0043225,0.827586
-0.00432,0.828102
-0.0043175,0.827586
-0.004315,0.827586
-0.0043125,0.827586
-0.00431,0.827586
-0.0043075,0.828102
-0.004305,0.828619
-0.0043025,0.828619
-0.0043,0.829135
-0.0042975,0.828619
-0.004295,0.828619
-0.0042925,0.829135
-0.00429,0.829135
-0.0042875,0.829652
-0.004285,0.829652
-0.0042825,0.830684
-0.00428,0.829652
-0.0042775,0.830168
-0.004275,0.829652
-0.0042725,0.830168
-0.00427,0.830684
-0.0042675,0.830684
-0.004265,0.830684
-0.0042625,0.831201
-0.00426,0.831201
-0.0042575,0.830684
-0.004255,0.830684
-0.0042525,0.831717
-0.00425,0.831717
-0.0042475,0.831717
-0.004245,0.831717
-0.0042425,0.832233
-0.00424,0.831717
-0.0042375,0.831717
-0.004235,0.833266
-0.0042325,0.833266
-0.00423,0.832233
-0.0042275,0.83275
-0.004225,0.83275
-0.0042225,0.83275
-0.00422,0.83275
-0.0042175,0.833266
-0.004215,0.833782
-0.0042125,0.833782
-0.00421,0.833782
-0.0042075,0.833782
-0.004205,0.833782
-0.0042025,0.833782
-0.0042,0.834815
-0.0041975,0.834815
-0.004195,0.834815
-0.0041925,0.834815
-0.00419,0.834815
-0.0041875,0.834815
-0.004185,0.834815
-0.0041825,0.835332
-0.00418,0.836364
-0.0041775,0.836364
-0.004175,0.836364
-0.0041725,0.835332
-0.00417,0.835848
-0.0041675,0.835332
-0.004165,0.836881
-0.0041625,0.836881
-0.00416,0.836881
-0.0041575,0.837397
-0.004155,0.836881
-0.0041525,0.836881
-0.00415,0.837397
-0.0041475,0.837913
-0.004145,0.837913
-0.0041425,0.83843
-0.00414,0.83843
-0.0041375,0.83843
-0.004135,0.837913
-0.0041325,0.83843
-0.00413,0.838946
-0.0041275,0.838946
-0.004125,0.838946
-0.0041225,0.838946
-0.00412,0.83843
-0.0041175,0.83843
-0.004115,0.839462
-0.0041125,0.839979
-0.00411,0.839979
-0.0041075,0.839979
-0.004105,0.841012
-0.0041025,0.839979
-0.0041,0.839462
-0.0040975,0.840495
-0.004095,0.841528
-0.0040925,0.841012
-0.00409,0.841012
-0.0040875,0.841012
-0.004085,0.841012
-0.0040825,0.841012
-0.00408,0.841528
-0.0040775,0.842561
-0.004075,0.842561
-0.0040725,0.842044
-0.00407,0.842044
-0.0040675,0.841528
-0.004065,0.841528
-0.0040625,0.842561
-0.00406,0.842561
-0.0040575,0.843077
-0.004055,0.843593
-0.0040525,0.843077
-0.00405,0.843077
-0.0040475,0.842561
-0.004045,0.843077
-0.0040425,0.84411
-0.00404,0.843593
-0.0040375,0.843077
-0.004035,0.843593
-0.0040325,0.843593
-0.00403,0.843593
-0.0040275,0.844626
-0.004025,0.845143
-0.0040225,0.844626
-0.00402,0.844626
-0.0040175,0.845659
-0.004015,0.845143
-0.0040125,0.845659
-0.00401,0.846175
-0.0040075,0.846175
-0.004005,0.846175
-0.0040025,0.845659
-0.004,0.846175
-0.0039975,0.846175
-0.003995,0.845659
-0.0039925,0.846175
-0.00399,0.846175
-0.0039875,0.846692
-0.003985,0.847208
-0.0039825,0.846175
-0.00398,0.846692
-0.0039775,0.847208
-0.003975,0.847724
-0.0039725,0.848241
-0.00397,0.847724
-0.0039675,0.848241
-0.003965,0.848241
-0.0039625,0.848241
-0.00396,0.847724
-0.0039575,0.848757
-0.003955,0.849273
-0.0039525,0.848757
-0.00395,0.848757
-0.0039475,0.849273
-0.003945,0.848241
-0.0039425,0.848757
-0.00394,0.850306
-0.0039375,0.84979
-0.003935,0.84979
-0.0039325,0.849273
-0.00393,0.849273
-0.0039275,0.850306
-0.003925,0.84979
-0.0039225,0.851339
-0.00392,0.850823
-0.0039175,0.850823
-0.003915,0.850823
-0.0039125,0.850823
-0.00391,0.850823
-0.0039075,0.851339
-0.003905,0.851855
-0.0039025,0.851339
-0.0039,0.851855
-0.0038975,0.851855
-0.003895,0.852372
-0.0038925,0.851855
-0.00389,0.851855
-0.0038875,0.852888
-0.003885,0.852372
-0.0038825,0.852888
-0.00388,0.853404
-0.0038775,0.852888
-0.003875,0.852888
-0.0038725,0.853404
-0.00387,0.853921
-0.0038675,0.853921
-0.003865,0.853404
-0.0038625,0.853404
-0.00386,0.853921
-0.0038575,0.854437
-0.003855,0.854437
-0.0038525,0.854953
-0.00385,0.85547
-0.0038475,0.854953
-0.003845,0.854953
-0.0038425,0.854953
-0.00384,0.854437
-0.0038375,0.855986
-0.003835,0.855986
-0.0038325,0.85547
-0.00383,0.855986
-0.0038275,0.85547
-0.003825,0.85547
-0.0038225,0.85547
-0.00382,0.855986
-0.0038175,0.857535
-0.003815,0.857019
-0.0038125,0.857019
-0.00381,0.857019
-0.0038075,0.856503
-0.003805,0.857019
-0.0038025,0.857019
-0.0038,0.857535
-0.0037975,0.858052
-0.003795,0.858052
-0.0037925,0.857019
-0.00379,0.857535
-0.0037875,0.858052
-0.003785,0.858568
-0.0037825,0.859084
-0.00378,0.858052
-0.0037775,0.858568
-0.003775,0.859601
-0.0037725,0.859601
-0.00377,0.859084
-0.0037675,0.859601
-0.003765,0.860117
-0.0037625,0.859601
-0.00376,0.859084
-0.0037575,0.860117
-0.003755,0.860117
-0.0037525,0.859601
-0.00375,0.860634
-0.0037475,0.86115
-0.003745,0.86115
-0.0037425,0.860117
-0.00374,0.860634
-0.0037375,0.860634
-0.003735,0.860634
-0.0037325,0.86115
-0.00373,0.862183
-0.0037275,0.862183
-0.003725,0.861666
-0.0037225,0.862183
-0.00372,0.86115
-0.0037175,0.861666
-0.003715,0.862699
-0.0037125,0.863215
-0.00371,0.862699
-0.0037075,0.862699
-0.003705,0.862699
-0.0037025,0.862699
-0.0037,0.862183
-0.0036975,0.863732
-0.003695,0.863732
-0.0036925,0.863732
-0.00369,0.863732
-0.0036875,0.864248
-0.003685,0.863732
-0.0036825,0.863732
-0.00368,0.864248
-0.0036775,0.864764
-0.003675,0.864248
-0.0036725,0.864248
-0.00367,0.864764
-0.0036675,0.864248
-0.003665,0.864764
-0.0036625,0.865797
-0.00366,0.865797
-0.0036575,0.865797
-0.003655,0.866314
-0.0036525,0.865797
-0.00365,0.865281
-0.0036475,0.865281
-0.003645,0.86683
-0.0036425,0.867346
-0.00364,0.86683
-0.0036375,0.86683
-0.003635,0.866314
-0.0036325,0.86683
-0.00363,0.866314
-0.0036275,0.867863
-0.003625,0.867863
-0.0036225,0.867863
-0.00362,0.867863
-0.0036175,0.867346
-0.003615,0.868379
-0.0036125,0.867863
-0.00361,0.868379
-0.0036075,0.868895
-0.003605,0.868379
-0.0036025,0.868379
-0.0036,0.869412
-0.0035975,0.868895
-0.003595,0.868379
-0.0035925,0.869412
-0.00359,0.869928
-0.0035875,0.869412
-0.003585,0.869928
-0.0035825,0.869928
-0.00358,0.869928
-0.0035775,0.869412
-0.003575,0.870961
-0.0035725,0.870444
-0.00357,0.870961
-0.0035675,0.870961
-0.003565,0.870444
-0.0035625,0.870444
-0.00356,0.870961
-0.0035575,0.871994
-0.003555,0.871994
-0.0035525,0.87251
-0.00355,0.871994
-0.0035475,0.871994
-0.003545,0.871994
-0.0035425,0.871994
-0.00354,0.87251
-0.0035375,0.871994
-0.003535,0.871994
-0.0035325,0.873026
-0.00353,0.87251
-0.0035275,0.871994
-0.003525,0.87251
-0.0035225,0.873543
-0.00352,0.873026
-0.0035175,0.873026
-0.003515,0.873543
-0.0035125,0.873543
-0.00351,0.874059
-0.0035075,0.874059
-0.003505,0.874575
-0.0035025,0.875092
-0.0035,0.874575
-0.0034975,0.874575
-0.003495,0.874575
-0.0034925,0.874575
-0.00349,0.875092
-0.0034875,0.876125
-0.003485,0.875608
-0.0034825,0.875608
-0.00348,0.876125
-0.0034775,0.876125
-0.003475,0.876125
-0.0034725,0.877157
-0.00347,0.876641
-0.0034675,0.876641
-0.003465,0.877157
-0.0034625,0.877157
-0.00346,0.876641
-0.0034575,0.876641
-0.003455,0.877157
-0.0034525,0.877674
-0.00345,0.877157
-0.0034475,0.87819
-0.003445,0.877674
-0.0034425,0.877674
-0.00344,0.877157
-0.0034375,0.87819
-0.003435,0.879223
-0.0034325,0.879223
-0.00343,0.878706
-0.0034275,0.878706
-0.003425,0.878706
-0.0034225,0.87819
-0.00342,0.879739
-0.0034175,0.879739
-0.003415,0.879739
-0.0034125,0.879223
-0.00341,0.879739
-0.0034075,0.880255
-0.003405,0.879739
-0.0034025,0.880255
-0.0034,0.880255
-0.0033975,0.881288
-0.003395,0.880255
-0.0033925,0.880772
-0.00339,0.880255
-0.0033875,0.880772
-0.003385,0.881288
-0.0033825,0.881805
-0.00338,0.882321
-0.0033775,0.881805
-0.003375,0.881288
-0.0033725,0.881805
-0.00337,0.881288
-0.0033675,0.882321
-0.003365,0.882321
-0.0033625,0.883354
-0.00336,0.882837
-0.0033575,0.882837
-0.003355,0.882321
-0.0033525,0.882321
-0.00335,0.883354
-0.0033475,0.88387
-0.003345,0.883354
-0.0033425,0.883354
-0.00334,0.883354
-0.0033375,0.88387
-0.003335,0.884386
-0.0033325,0.884903
-0.00333,0.884386
-0.0033275,0.884386
-0.003325,0.884386
-0.0033225,0.884903
-0.00332,0.884386
-0.0033175,0.884903
-0.003315,0.885935
-0.0033125,0.885935
-0.00331,0.885419
-0.0033075,0.885419
-0.003305,0.884903
-0.0033025,0.885419
-0.0033,0.885419
-0.0032975,0.886968
-0.003295,0.886968
-0.0032925,0.886968
-0.00329,0.886968
-0.0032875,0.886968
-0.003285,0.886452
-0.0032825,0.886968
-0.00328,0.887485
-0.0032775,0.888517
-0.003275,0.887485
-0.0032725,0.888001
-0.00327,0.887485
-0.0032675,0.888001
-0.003265,0.888517
-0.0032625,0.888517
-0.00326,0.889034
-0.0032575,0.889034
-0.003255,0.889034
-0.0032525,0.889034
-0.00325,0.889034
-0.0032475,0.889034
-0.003245,0.890066
-0.0032425,0.890066
-0.00324,0.890066
-0.0032375,0.88955
-0.003235,0.88955
-0.0032325,0.88955
-0.00323,0.890583
-0.0032275,0.890583
-0.003225,0.890583
-0.0032225,0.890583
-0.00322,0.890583
-0.0032175,0.890583
-0.003215,0.890066
-0.0032125,0.891616
-0.00321,0.891616
-0.0032075,0.891616
-0.003205,0.891616
-0.0032025,0.891616
-0.0032,0.892132
-0.0031975,0.892132
-0.003195,0.892132
-0.0031925,0.892648
-0.00319,0.892132
-0.0031875,0.893681
-0.003185,0.892648
-0.0031825,0.893165
-0.00318,0.893165
-0.0031775,0.893165
-0.003175,0.893681
-0.0031725,0.893681
-0.00317,0.893681
-0.0031675,0.893681
-0.003165,0.894197
-0.0031625,0.894197
-0.00316,0.894714
-0.0031575,0.894714
-0.003155,0.894714
-0.0031525,0.894714
-0.00315,0.894714
-0.0031475,0.894714
-0.003145,0.894714
-0.0031425,0.895746
-0.00314,0.895746
-0.0031375,0.896263
-0.003135,0.895746
-0.0031325,0.89523
-0.00313,0.895746
-0.0031275,0.895746
-0.003125,0.896779
-0.0031225,0.896779
-0.00312,0.896779
-0.0031175,0.896779
-0.003115,0.896779
-0.0031125,0.897296
-0.00311,0.896779
-0.0031075,0.897812
-0.003105,0.897296
-0.0031025,0.897296
-0.0031,0.897296
-0.0030975,0.897812
-0.003095,0.897296
-0.0030925,0.898328
-0.00309,0.898845
-0.0030875,0.898328
-0.003085,0.898845
-0.0030825,0.899361
-0.00308,0.898845
-0.0030775,0.899361
-0.003075,0.898328
-0.0030725,0.899877
-0.00307,0.899877
-0.0030675,0.899361
-0.003065,0.899877
-0.0030625,0.899361
-0.00306,0.899877
-0.0030575,0.899361
-0.003055,0.90091
-0.0030525,0.900394
-0.00305,0.900394
-0.0030475,0.900394
-0.003045,0.90091
-0.0030425,0.900394
-0.00304,0.900394
-0.0030375,0.901943
-0.003035,0.901426
-0.0030325,0.902459
-0.00303,0.901943
-0.0030275,0.901426
-0.003025,0.90091
-0.0030225,0.901426
-0.00302,0.902976
-0.0030175,0.902459
-0.003015,0.902976
-0.0030125,0.902459
-0.00301,0.902459
-0.0030075,0.902459
-0.003005,0.902459
-0.0030025,0.902976
-0.003,0.902976
-0.0029975,0.902976
-0.002995,0.903492
-0.0029925,0.903492
-0.00299,0.903492
-0.0029875,0.903492
-0.002985,0.905557
-0.0029825,0.905041
-0.00298,0.904525
-0.0029775,0.904525
-0.002975,0.904525
-0.0029725,0.904008
-0.00297,0.904525
-0.0029675,0.905557
-0.002965,0.905557
-0.0029625,0.905557
-0.00296,0.905557
-0.0029575,0.905557
-0.002955,0.905557
-0.0029525,0.905557
-0.00295,0.906074
-0.0029475,0.90659
-0.002945,0.90659
-0.0029425,0.90659
-0.00294,0.90659
-0.0029375,0.90659
-0.002935,0.907107
-0.0029325,0.907623
-0.00293,0.907107
-0.0029275,0.907623
-0.002925,0.907623
-0.0029225,0.907623
-0.00292,0.907623
-0.0029175,0.908139
-0.002915,0.908139
-0.0029125,0.908656
-0.00291,0.908656
-0.0029075,0.908656
-0.002905,0.908656
-0.0029025,0.908656
-0.0029,0.908656
-0.0028975,0.909688
-0.002895,0.910205
-0.0028925,0.909688
-0.00289,0.910205
-0.0028875,0.910205
-0.002885,0.910205
-0.0028825,0.910721
-0.00288,0.910721
-0.0028775,0.910721
-0.002875,0.910721
-0.0028725,0.911237
-0.00287,0.910721
-0.0028675,0.910721
-0.002865,0.911237
-0.0028625,0.911754
-0.00286,0.911754
-0.0028575,0.91227
-0.002855,0.911754
-0.0028525,0.911754
-0.00285,0.911237
-0.0028475,0.912787
-0.002845,0.912787
-0.0028425,0.912787
-0.00284,0.912787
-0.0028375,0.91227
-0.002835,0.912787
-0.0028325,0.912787
-0.00283,0.913819
-0.0028275,0.913819
-0.002825,0.913819
-0.0028225,0.913819
-0.00282,0.913303
-0.0028175,0.913819
-0.002815,0.913303
-0.0028125,0.914336
-0.00281,0.914336
-0.0028075,0.914852
-0.002805,0.914852
-0.0028025,0.914852
-0.0028,0.914852
-0.0027975,0.914852
-0.002795,0.915885
-0.0027925,0.915885
-0.00279,0.915368
-0.0027875,0.915885
-0.002785,0.915885
-0.0027825,0.915368
-0.00278,0.915368
-0.0027775,0.916917
-0.002775,0.916401
-0.0027725,0.916401
-0.00277,0.916917
-0.0027675,0.916917
-0.002765,0.916401
-0.0027625,0.916917
-0.00276,0.91795
-0.0027575,0.91795
-0.002755,0.917434
-0.0027525,0.917434
-0.00275,0.91795
-0.0027475,0.917434
-0.002745,0.91795
-0.0027425,0.918983
-0.00274,0.918467
-0.0027375,0.918983
-0.002735,0.918467
-0.0027325,0.918983
-0.00273,0.918983
-0.0027275,0.918983
-0.002725,0.919499
-0.0027225,0.919499
-0.00272,0.920016
-0.0027175,0.920016
-0.002715,0.919499
-0.0027125,0.919499
-0.00271,0.920016
-0.0027075,0.920016
-0.002705,0.920532
-0.0027025,0.920016
-0.0027,0.920532
-0.0026975,0.920532
-0.002695,0.921048
-0.0026925,0.921048
-0.00269,0.922081
-0.0026875,0.921565
-0.002685,0.921048
-0.0026825,0.921565
-0.00268,0.921048
-0.0026775,0.921048
-0.002675,0.922081
-0.0026725,0.922598
-0.00267,0.923114
-0.0026675,0.923114
-0.002665,0.922598
-0.0026625,0.923114
-0.00266,0.922081
-0.0026575,0.923114
-0.002655,0.92363
-0.0026525,0.923114
-0.00265,0.923114
-0.0026475,0.92363
-0.002645,0.924147
-0.0026425,0.92363
-0.00264,0.924147
-0.0026375,0.924147
-0.002635,0.924663
-0.0026325,0.925179
-0.00263,0.924663
-0.0026275,0.925179
-0.002625,0.924147
-0.0026225,0.925179
-0.00262,0.925179
-0.0026175,0.925696
-0.002615,0.925179
-0.0026125,0.925179
-0.00261,0.925696
-0.0026075,0.925696
-0.002605,0.926212
-0.0026025,0.926728
-0.0026,0.925696
-0.0025975,0.926728
-0.002595,0.926728
-0.0025925,0.926212
-0.00259,0.927245
-0.0025875,0.927245
-0.002585,0.927761
-0.0025825,0.927761
-0.00258,0.927761
-0.0025775,0.927245
-0.002575,0.927761
-0.0025725,0.927761
-0.00257,0.928278
-0.0025675,0.928794
-0.002565,0.928278
-0.0025625,0.928794
-0.00256,0.928278
-0.0025575,0.928278
-0.002555,0.928278
-0.0025525,0.92931
-0.00255,0.929827
-0.0025475,0.928794
-0.002545,0.92931
-0.0025425,0.92931
-0.00254,0.929827
-0.0025375,0.92931
-0.002535,0.930859
-0.0025325,0.930859
-0.00253,0.930859
-0.0025275,0.930343
-0.002525,0.930343
-0.0025225,0.930343
-0.00252,0.929827
-0.0025175,0.931376
-0.002515,0.931376
-0.0025125,0.931376
-0.00251,0.931376
-0.0025075,0.931892
-0.002505,0.931892
-0.0025025,0.931892
-0.0025,0.932925
-0.0024975,0.932925
-0.002495,0.932925
-0.0024925,0.932408
-0.00249,0.932408
-0.0024875,0.932408
-0.002485,0.932925
-0.0024825,0.933441
-0.00248,0.933958
-0.0024775,0.933441
-0.002475,0.933958
-0.0024725,0.933441
-0.00247,0.933441
-0.0024675,0.933441
-0.002465,0.934474
-0.0024625,0.934474
-0.00246,0.934474
-0.0024575,0.933958
-0.002455,0.934474
-0.0024525,0.934474
-0.00245,0.934474
-0.0024475,0.936023
-0.002445,0.936023
-0.0024425,0.936023
-0.00244,0.935507
-0.0024375,0.935507
-0.002435,0.936023
-0.0024325,0.935507
-0.00243,0.936539
-0.0024275,0.937056
-0.002425,0.937056
-0.0024225,0.937056
-0.00242,0.936539
-0.0024175,0.936023
-0.002415,0.937056
-0.0024125,0.937572
-0.00241,0.937056
-0.0024075,0.937572
-0.002405,0.938089
-0.0024025,0.937056
-0.0024,0.936539
-0.0023975,0.937572
-0.002395,0.938089
-0.0023925,0.939121
-0.00239,0.938605
-0.0023875,0.938605
-0.002385,0.938605
-0.0023825,0.939121
-0.00238,0.939121
-0.0023775,0.939121
-0.002375,0.939638
-0.0023725,0.938605
-0.00237,0.939121
-0.0023675,0.939121
-0.002365,0.939121
-0.0023625,0.940154
-0.00236,0.941187
-0.0023575,0.941187
-0.002355,0.94067
-0.0023525,0.94067
-0.00235,0.94067
-0.0023475,0.94067
-0.002345,0.941703
-0.0023425,0.941187
-0.00234,0.941703
-0.0023375,0.941703
-0.002335,0.941703
-0.0023325,0.941703
-0.00233,0.941703
-0.0023275,0.942219
-0.002325,0.942219
-0.0023225,0.942736
-0.00232,0.942736
-0.0023175,0.942736
-0.002315,0.942219
-0.0023125,0.941703
-0.00231,0.942219
-0.0023075,0.943769
-0.002305,0.943769
-0.0023025,0.943769
-0.0023,0.943769
-0.0022975,0.943252
-0.002295,0.943769
-0.0022925,0.944285
-0.00229,0.944285
-0.0022875,0.944285
-0.002285,0.944801
-0.0022825,0.944801
-0.00228,0.944801
-0.0022775,0.944801
-0.002275,0.944801
-0.0022725,0.945318
-0.00227,0.945318
-0.0022675,0.94635
-0.002265,0.945318
-0.0022625,0.945834
-0.00226,0.945834
-0.0022575,0.946867
-0.002255,0.94635
-0.0022525,0.946867
-0.00225,0.946867
-0.0022475,0.946867
-0.002245,0.946867
-0.0022425,0.94635
-0.00224,0.946867
-0.0022375,0.946867
-0.002235,0.947383
-0.0022325,0.9479
-0.00223,0.947383
-0.0022275,0.947383
-0.002225,0.947383
-0.0022225,0.948932
-0.00222,0.948416
-0.0022175,0.948416
-0.002215,0.948416
-0.0022125,0.948932
-0.00221,0.948932
-0.0022075,0.948932
-0.002205,0.949965
-0.0022025,0.949449
-0.0022,0.949449
-0.0021975,0.948932
-0.002195,0.949449
-0.0021925,0.949449
-0.00219,0.949449
-0.0021875,0.950481
-0.002185,0.949965
-0.0021825,0.950481
-0.00218,0.950481
-0.0021775,0.950998
-0.002175,0.951514
-0.0021725,0.950481
-0.00217,0.951514
-0.0021675,0.951514
-0.002165,0.951514
-0.0021625,0.95203
-0.00216,0.950998
-0.0021575,0.951514
-0.002155,0.951514
-0.0021525,0.952547
-0.00215,0.952547
-0.0021475,0.95203
-0.002145,0.95203
-0.0021425,0.952547
-0.00214,0.952547
-0.0021375,0.952547
-0.002135,0.95358
-0.0021325,0.95358
-0.00213,0.954096
-0.0021275,0.95358
-0.002125,0.95358
-0.0021225,0.953063
-0.00212,0.954096
-0.0021175,0.954612
-0.002115,0.954612
-0.0021125,0.954096
-0.00211,0.954612
-0.0021075,0.954096
-0.002105,0.954612
-0.0021025,0.955129
-0.0021,0.955129
-0.0020975,0.955645
-0.002095,0.955129
-0.0020925,0.955129
-0.00209,0.955645
-0.0020875,0.955645
-0.002085,0.955645
-0.0020825,0.956161
-0.00208,0.956161
-0.0020775,0.956678
-0.002075,0.956678
-0.0020725,0.956161
-0.00207,0.956678
-0.0020675,0.957194
-0.002065,0.956678
-0.0020625,0.957194
-0.00206,0.957194
-0.0020575,0.95771
-0.002055,0.95771
-0.0020525,0.957194
-0.00205,0.958227
-0.0020475,0.958227
-0.002045,0.958227
-0.0020425,0.958227
-0.00204,0.958743
-0.0020375,0.958743
-0.002035,0.958743
-0.0020325,0.95926
-0.00203,0.95926
-0.0020275,0.95926
-0.002025,0.95926
-0.0020225,0.959776
-0.00202,0.958743
-0.0020175,0.959776
-0.002015,0.960292
-0.0020125,0.960292
-0.00201,0.960292
-0.0020075,0.960809
-0.002005,0.960809
-0.0020025,0.960292
-0.002,0.960292
-0.0019975,0.961325
-0.001995,0.961325
-0.0019925,0.961325
-0.00199,0.961325
-0.0019875,0.960809
-0.001985,0.961841
-0.0019825,0.961325
-0.00198,0.962874
-0.0019775,0.962358
-0.001975,0.962358
-0.0019725,0.962874
-0.00197,0.962358
-0.0019675,0.962358
-0.001965,0.963391
-0.0019625,0.963391
-0.00196,0.963907
-0.0019575,0.962874
-0.001955,0.962874
-0.0019525,0.963391
-0.00195,0.963391
-0.0019475,0.962874
-0.001945,0.964423
-0.0019425,0.96494
-0.00194,0.96494
-0.0019375,0.963907
-0.001935,0.964423
-0.0019325,0.964423
-0.00193,0.964423
-0.0019275,0.965456
-0.001925,0.965456
-0.0019225,0.965456
-0.00192,0.96494
-0.0019175,0.965456
-0.001915,0.965456
-0.0019125,0.965972
-0.00191,0.965972
-0.0019075,0.966489
-0.001905,0.966489
-0.0019025,0.966489
-0.0019,0.966489
-0.0018975,0.966489
-0.001895,0.966489
-0.0018925,0.968038
-0.00189,0.967521
-0.0018875,0.968038
-0.001885,0.967521
-0.0018825,0.967521
-0.00188,0.967521
-0.0018775,0.968038
-0.001875,0.968554
-0.0018725,0.968554
-0.00187,0.969071
-0.0018675,0.968038
-0.001865,0.968038
-0.0018625,0.968554
-0.00186,0.969071
-0.0018575,0.970103
-0.001855,0.970103
-0.0018525,0.97062
-0.00185,0.969587
-0.0018475,0.969587
-0.001845,0.969587
-0.0018425,0.97062
-0.00184,0.97062
-0.0018375,0.97062
-0.001835,0.97062
-0.0018325,0.97062
-0.00183,0.97062
-0.0018275,0.97062
-0.001825,0.971136
-0.0018225,0.971652
-0.00182,0.971652
-0.0018175,0.971652
-0.001815,0.971136
-0.0018125,0.971652
-0.00181,0.971136
-0.0018075,0.972169
-0.001805,0.972169
-0.0018025,0.972169
-0.0018,0.972685
-0.0017975,0.972169
-0.001795,0.972685
-0.0017925,0.973201
-0.00179,0.973201
-0.0017875,0.973201
-0.001785,0.973201
-0.0017825,0.972685
-0.00178,0.973201
-0.0017775,0.973718
-0.001775,0.973718
-0.0017725,0.973718
-0.00177,0.974751
-0.0017675,0.974751
-0.001765,0.974751
-0.0017625,0.973718
-0.00176,0.974234
-0.0017575,0.974751
-0.001755,0.975267
-0.0017525,0.975783
-0.00175,0.975267
-0.0017475,0.975783
-0.001745,0.975267
-0.0017425,0.975783
-0.00174,0.975267
-0.0017375,0.975783
-0.001735,0.9763
-0.0017325,0.976816
-0.00173,0.975267
-0.0017275,0.9763
-0.001725,0.975783
-0.0017225,0.976816
-0.00172,0.977332
-0.0017175,0.977332
-0.001715,0.977332
-0.0017125,0.977332
-0.00171,0.977849
-0.0017075,0.976816
-0.001705,0.977332
-0.0017025,0.977849
-0.0017,0.977849
-0.0016975,0.978365
-0.001695,0.978365
-0.0016925,0.978882
-0.00169,0.978882
-0.0016875,0.978365
-0.001685,0.978882
-0.0016825,0.979398
-0.00168,0.979398
-0.0016775,0.979398
-0.001675,0.979398
-0.0016725,0.979398
-0.00167,0.979398
-0.0016675,0.980431
-0.001665,0.980431
-0.0016625,0.979914
-0.00166,0.980431
-0.0016575,0.980947
-0.001655,0.980431
-0.0016525,0.980431
-0.00165,0.980947
-0.0016475,0.980947
-0.001645,0.980431
-0.0016425,0.980947
-0.00164,0.981463
-0.0016375,0.981463
-0.001635,0.980947
-0.0016325,0.982496
-0.00163,0.982496
-0.0016275,0.98198
-0.001625,0.982496
-0.0016225,0.982496
-0.00162,0.983012
-0.0016175,0.982496
-0.001615,0.983529
-0.0016125,0.983012
-0.00161,0.983012
-0.0016075,0.983529
-0.001605,0.984045
-0.0016025,0.983529
-0.0016,0.984045
-0.0015975,0.985078
-0.001595,0.984045
-0.0015925,0.984562
-0.00159,0.984562
-0.0015875,0.984562
-0.001585,0.984562
-0.0015825,0.984562
-0.00158,0.985594
-0.0015775,0.985594
-0.001575,0.985078
-0.0015725,0.985594
-0.00157,0.985594
-0.0015675,0.985078
-0.001565,0.986111
-0.0015625,0.986627
-0.00156,0.986111
-0.0015575,0.986111
-0.001555,0.986111
-0.0015525,0.986627
-0.00155,0.985594
-0.0015475,0.986627
-0.001545,0.987143
-0.0015425,0.98766
-0.00154,0.988176
-0.0015375,0.98766
-0.001535,0.98766
-0.0015325,0.987143
-0.00153,0.98766
-0.0015275,0.98766
-0.001525,0.988692
-0.0015225,0.988692
-0.00152,0.988692
-0.0015175,0.988176
-0.001515,0.988176
-0.0015125,0.988692
-0.00151,0.988692
-0.0015075,0.988692
-0.001505,0.989209
-0.0015025,0.989209
-0.0015,0.989725
-0.0014975,0.990242
-0.001495,0.990242
-0.0014925,0.989725
-0.00149,0.989725
-0.0014875,0.989725
-0.001485,0.990242
-0.0014825,0.990242
-0.00148,0.990758
-0.0014775,0.991791
-0.001475,0.990758
-0.0014725,0.991791
-0.00147,0.991791
-0.0014675,0.992307
-0.001465,0.991274
-0.0014625,0.991274
-0.00146,0.992307
-0.0014575,0.992307
-0.001455,0.991791
-0.0014525,0.992307
-0.00145,0.992307
-0.0014475,0.992307
-0.001445,0.992823
-0.0014425,0.99334
-0.00144,0.993856
-0.0014375,0.99334
-0.001435,0.99334
-0.0014325,0.99334
-0.00143,0.99334
-0.0014275,0.993856
-0.001425,0.994373
-0.0014225,0.993856
-0.00142,0.993856
-0.0014175,0.994373
-0.001415,0.993856
-0.0014125,0.994373
-0.00141,0.994373
-0.0014075,0.994889
-0.001405,0.995405
-0.0014025,0.995405
-0.0014,0.994889
-0.0013975,0.994889
-0.001395,0.995405
-0.0013925,0.995405
-0.00139,0.996438
-0.0013875,0.996438
-0.001385,0.996438
-0.0013825,0.996438
-0.00138,0.995922
-0.0013775,0.996438
-0.001375,0.996954
-0.0013725,0.997471
-0.00137,0.997471
-0.0013675,0.997471
-0.001365,0.997471
-0.0013625,0.996954
-0.00136,0.997471
-0.0013575,0.996954
-0.001355,0.998503
-0.0013525,0.998503
-0.00135,0.997987
-0.0013475,0.997987
-0.001345,0.997987
-0.0013425,0.998503
-0.00134,0.99902
-0.0013375,0.999536
-0.001335,0.999536
-0.0013325,0.99902
-0.00133,0.999536
-0.0013275,0.999536
-0.001325,0.999536
-0.0013225,0.999536
-0.00132,1.00057
-0.0013175,1.00057
-0.001315,1.00005
-0.0013125,1.00005
-0.00131,1.00005
-0.0013075,1.00005
-0.001305,1.00005
-0.0013025,1.0016
-0.0013,1.00109
-0.0012975,1.0016
-0.001295,1.0016
-0.0012925,1.00057
-0.00129,1.00109
-0.0012875,1.00212
-0.001285,1.00212
-0.0012825,1.00212
-0.00128,1.00212
-0.0012775,1.00212
-0.001275,1.00212
-0.0012725,1.00212
-0.00127,1.00315
-0.0012675,1.00315
-0.001265,1.00315
-0.0012625,1.00315
-0.00126,1.00315
-0.0012575,1.00263
-0.001255,1.00263
-0.0012525,1.00315
-0.00125,1.00418
-0.0012475,1.00418
-0.001245,1.00418
-0.0012425,1.00367
-0.00124,1.00418
-0.0012375,1.00418
-0.001235,1.00522
-0.0012325,1.00522
-0.00123,1.00522
-0.0012275,1.00522
-0.001225,1.00522
-0.0012225,1.00573
-0.00122,1.0047
-0.0012175,1.00573
-0.001215,1.00677
-0.0012125,1.00625
-0.00121,1.00625
-0.0012075,1.00625
-0.001205,1.00625
-0.0012025,1.00625
-0.0012,1.00728
-0.0011975,1.00728
-0.001195,1.00728
-0.0011925,1.00677
-0.00119,1.00728
-0.0011875,1.00677
-0.001185,1.00728
-0.0011825,1.0078
-0.00118,1.00883
-0.0011775,1.0078
-0.001175,1.00831
-0.0011725,1.0078
-0.00117,1.00883
-0.0011675,1.0078
-0.001165,1.00883
-0.0011625,1.00935
-0.00116,1.00935
-0.0011575,1.00935
-0.001155,1.00935
-0.0011525,1.00883
-0.00115,1.00935
-0.0011475,1.01038
-0.001145,1.01038
-0.0011425,1.01141
-0.00114,1.01038
-0.0011375,1.0109
-0.001135,1.01038
-0.0011325,1.01038
-0.00113,1.01141
-0.0011275,1.01141
-0.001125,1.0109
-0.0011225,1.01141
-0.00112,1.01193
-0.0011175,1.01141
-0.001115,1.01141
-0.0011125,1.01245
-0.00111,1.01296
-0.0011075,1.01245
-0.001105,1.01193
-0.0011025,1.01245
-0.0011,1.01245
-0.0010975,1.01245
-0.001095,1.01348
-0.0010925,1.01296
-0.00109,1.01348
-0.0010875,1.01399
-0.001085,1.01348
-0.0010825,1.01296
-0.00108,1.01348
-0.0010775,1.01451
-0.001075,1.01399
-0.0010725,1.01451
-0.00107,1.01451
-0.0010675,1.01451
-0.001065,1.01399
-0.0010625,1.01399
-0.00106,1.01503
-0.0010575,1.01451
-0.001055,1.01503
-0.0010525,1.01503
-0.00105,1.01554
-0.0010475,1.01554
-0.001045,1.01554
-0.0010425,1.01606
-0.00104,1.01658
-0.0010375,1.01709
-0.001035,1.01658
-0.0010325,1.01658
-0.00103,1.01606
-0.0010275,1.01554
-0.001025,1.01709
-0.0010225,1.01761
-0.00102,1.01709
-0.0010175,1.01761
-0.001015,1.01761
-0.0010125,1.01761
-0.00101,1.01709
-0.0010075,1.01813
-0.001005,1.01813
-0.0010025,1.01813
-0.001,1.01813
-0.0009975,1.01864
-0.000995,1.01813
-0.0009925,1.01761
-0.00099,1.01864
-0.0009875,1.01916
-0.000985,1.01916
-0.0009825,1.01967
-0.00098,1.01916
-0.0009775,1.01916
-0.000975,1.01967
-0.0009725,1.01967
-0.00097,1.01967
-0.0009675,1.02019
-0.000965,1.02071
-0.0009625,1.02019
-0.00096,1.02071
-0.0009575,1.02071
-0.000955,1.02174
-0.0009525,1.02122
-0.00095,1.02122
-0.0009475,1.02122
-0.000945,1.02122
-0.0009425,1.02122
-0.00094,1.02122
-0.0009375,1.02226
-0.000935,1.02226
-0.0009325,1.02226
-0.00093,1.02226
-0.0009275,1.02226
-0.000925,1.02174
-0.0009225,1.02277
-0.00092,1.02329
-0.0009175,1.02329
-0.000915,1.02277
-0.0009125,1.02329
-0.00091,1.02329
-0.0009075,1.02329
-0.000905,1.02381
-0.0009025,1.02381
-0.0009,1.02381
-0.0008975,1.02329
-0.000895,1.02381
-0.0008925,1.02432
-0.00089,1.02432
-0.0008875,1.02484
-0.000885,1.02484
-0.0008825,1.02432
-0.00088,1.02484
-0.0008775,1.02484
-0.000875,1.02587
-0.0008725,1.02587
-0.00087,1.02587
-0.0008675,1.02639
-0.000865,1.02639
-0.0008625,1.0269
-0.00086,1.02639
-0.0008575,1.02587
-0.000855,1.02587
-0.0008525,1.0269
-0.00085,1.02742
-0.0008475,1.0269
-0.000845,1.02742
-0.0008425,1.02794
-0.00084,1.0269
-0.0008375,1.02742
-0.000835,1.02794
-0.0008325,1.02794
-0.00083,1.02794
-0.0008275,1.02794
-0.000825,1.02794
-0.0008225,1.02845
-0.00082,1.02794
-0.0008175,1.02845
-0.000815,1.02897
-0.0008125,1.02845
-0.00081,1.02845
-0.0008075,1.02897
-0.000805,1.02897
-0.0008025,1.02949
-0.0008,1.03
-0.0007975,1.03
-0.000795,1.03052
-0.0007925,1.03
-0.00079,1.03052
-0.0007875,1.03052
-0.000785,1.03052
-0.0007825,1.03207
-0.00078,1.03103
-0.0007775,1.03103
-0.000775,1.03155
-0.0007725,1.03103
-0.00077,1.03155
-0.0007675,1.03103
-0.000765,1.03207
-0.0007625,1.03207
-0.00076,1.03258
-0.0007575,1.03258
-0.000755,1.03207
-0.0007525,1.03207
-0.00075,1.03207
-0.0007475,1.0331
-0.000745,1.03258
-0.0007425,1.03258
-0.00074,1.0331
-0.0007375,1.0331
-0.000735,1.0331
-0.0007325,1.03362
-0.00073,1.03465
-0.0007275,1.03413
-0.000725,1.03413
-0.0007225,1.03413
-0.00072,1.03413
-0.0007175,1.03465
-0.000715,1.03517
-0.0007125,1.03568
-0.00071,1.03517
-0.0007075,1.03517
-0.000705,1.03568
-0.0007025,1.03517
-0.0007,1.03517
-0.0006975,1.03568
-0.000695,1.0362
-0.0006925,1.03671
-0.00069,1.0362
-0.0006875,1.0362
-0.000685,1.0362
-0.0006825,1.03671
-0.00068,1.03671
-0.0006775,1.03723
-0.000675,1.03723
-0.0006725,1.03723
-0.00067,1.03671
-0.0006675,1.03723
-0.000665,1.03775
-0.0006625,1.03775
-0.00066,1.03775
-0.0006575,1.03775
-0.000655,1.03878
-0.0006525,1.03826
-0.00065,1.03826
-0.0006475,1.03826
-0.000645,1.03878
-0.0006425,1.0393
-0.00064,1.0393
-0.0006375,1.0393
-0.000635,1.03981
-0.0006325,1.03878
-0.00063,1.0393
-0.0006275,1.03981
-0.000625,1.04033
-0.0006225,1.04033
-0.00062,1.04033
-0.0006175,1.03981
-0.000615,1.04033
-0.0006125,1.04085
-0.00061,1.04085
-0.0006075,1.04136
-0.000605,1.04136
-0.0006025,1.04136
-0.0006,1.04136
-0.0005975,1.04136
-0.000595,1.04085
-0.0005925,1.04188
-0.00059,1.04239
-0.0005875,1.04291
-0.000585,1.04291
-0.0005825,1.04188
-0.00058,1.04136
-0.0005775,1.04188
-0.000575,1.04343
-0.0005725,1.04343
-0.00057,1.04343
-0.0005675,1.04343
-0.000565,1.04291
-0.0005625,1.04291
-0.00056,1.04343
-0.0005575,1.04394
-0.000555,1.04446
-0.0005525,1.04394
-0.00055,1.04446
-0.0005475,1.04446
-0.000545,1.04394
-0.0005425,1.04343
-0.00054,1.04498
-0.0005375,1.04498
-0.000535,1.04498
-0.0005325,1.04549
-0.00053,1.04498
-0.0005275,1.04549
-0.000525,1.04498
-0.0005225,1.04653
-0.00052,1.04601
-0.0005175,1.04601
-0.000515,1.04601
-0.0005125,1.04601
-0.00051,1.04601
-0.0005075,1.04653
-0.000505,1.04704
-0.0005025,1.04704
-0.0005,1.04704
-0.0004975,1.04704
-0.000495,1.04704
-0.0004925,1.04756
-0.00049,1.04756
-0.0004875,1.04807
-0.000485,1.04911
-0.0004825,1.04859
-0.00048,1.04756
-0.0004775,1.04756
-0.000475,1.04807
-0.0004725,1.04807
-0.00047,1.04962
-0.0004675,1.04911
-0.000465,1.04911
-0.0004625,1.04911
-0.00046,1.04962
-0.0004575,1.04911
-0.000455,1.04911
-0.0004525,1.05014
-0.00045,1.05066
-0.0004475,1.05014
-0.000445,1.04962
-0.0004425,1.04962
-0.00044,1.04962
-0.0004375,1.04962
-0.000435,1.05117
-0.0004325,1.05117
-0.00043,1.05066
-0.0004275,1.05117
-0.000425,1.05066
-0.0004225,1.05169
-0.00042,1.05117
-0.0004175,1.05272
-0.000415,1.05169
-0.0004125,1.05169
-0.00041,1.05221
-0.0004075,1.05169
-0.000405,1.05221
-0.0004025,1.05272
-0.0004,1.05272
-0.0003975,1.05324
-0.000395,1.05324
-0.0003925,1.05375
-0.00039,1.05324
-0.0003875,1.05324
-0.000385,1.05375
-0.0003825,1.05479
-0.00038,1.05427
-0.0003775,1.05427
-0.000375,1.05375
-0.0003725,1.05375
-0.00037,1.05427
-0.0003675,1.05375
-0.000365,1.05479
-0.0003625,1.05479
-0.00036,1.05479
-0.0003575,1.0553
-0.000355,1.0553
-0.0003525,1.0553
-0.00035,1.0553
-0.0003475,1.05582
-0.000345,1.05582
-0.0003425,1.05634
-0.00034,1.05634
-0.0003375,1.05582
-0.000335,1.05582
-0.0003325,1.05685
-0.00033,1.05737
-0.0003275,1.05634
-0.000325,1.05685
-0.0003225,1.05685
-0.00032,1.05737
-0.0003175,1.05737
-0.000315,1.05737
-0.0003125,1.0584
-0.00031,1.05789
-0.0003075,1.05789
-0.000305,1.05737
-0.0003025,1.05789
-0.0003,1.05737
-0.0002975,1.0584
-0.000295,1.05892
-0.0002925,1.05943
-0.00029,1.05943
-0.0002875,1.05892
-0.000285,1.05892
-0.0002825,1.05943
-0.00028,1.05995
-0.0002775,1.06047
-0.000275,1.05995
-0.0002725,1.05995
-0.00027,1.06047
-0.0002675,1.05995
-0.000265,1.06047
-0.0002625,1.06098
-0.00026,1.06098
-0.0002575,1.06047
-0.000255,1.06047
-0.0002525,1.06098
-0.00025,1.0615
-0.0002475,1.06047
-0.000245,1.06202
-0.0002425,1.0615
-0.00024,1.06202
-0.0002375,1.06202
-0.000235,1.06202
-0.0002325,1.06202
-0.00023,1.06202
-0.0002275,1.06305
-0.000225,1.06305
-0.0002225,1.06305
-0.00022,1.06253
-0.0002175,1.06253
-0.000215,1.06305
-0.0002125,1.06253
-0.00021,1.06408
-0.0002075,1.06408
-0.000205,1.0646
-0.0002025,1.06357
-0.0002,1.06408
-0.0001975,1.06408
-0.000195,1.06408
-0.0001925,1.06511
-0.00019,1.06511
-0.0001875,1.06511
-0.000185,1.0646
-0.0001825,1.0646
-0.00018,1.0646
-0.0001775,1.0646
-0.000175,1.06563
-0.0001725,1.06563
-0.00017,1.06563
-0.0001675,1.06563
-0.000165,1.06615
-0.0001625,1.06615
-0.00016,1.06615
-0.0001575,1.06718
-0.000155,1.06666
-0.0001525,1.06666
-0.00015,1.06718
-0.0001475,1.06666
-0.000145,1.06666
-0.0001425,1.06666
-0.00014,1.0677
-0.0001375,1.06821
-0.000135,1.06821
-0.0001325,1.0677
-0.00013,1.0677
-0.0001275,1.0677
-0.000125,1.06821
-0.0001225,1.06925
-0.00012,1.06873
-0.0001175,1.06873
-0.000115,1.06925
-0.0001125,1.06873
-0.00011,1.06873
-0.0001075,1.06925
-0.000105,1.06925
-0.0001025,1.07028
-0.0001,1.07028
-9.75e-05,1.07028
-9.5e-05,1.07028
-9.25e-05,1.07028
-9e-05,1.07028
-8.75e-05,1.07079
-8.5e-05,1.07079
-8.25e-05,1.07079
-8e-05,1.07079
-7.75e-05,1.07079
-7.5e-05,1.07028
-7.25e-05,1.07131
-7e-05,1.07183
-6.75e-05,1.07183
-6.5e-05,1.07183
-6.25e-05,1.07234
-6e-05,1.07183
-5.75e-05,1.07131
-5.5e-05,1.07286
-5.25e-05,1.07338
-5e-05,1.07338
-4.75e-05,1.07234
-4.5e-05,1.07286
-4.25e-05,1.07286
-4e-05,1.07234
-3.75e-05,1.07389
-3.5e-05,1.07441
-3.25e-05,1.07389
-3e-05,1.07389
-2.75e-05,1.07441
-2.5e-05,1.07441
-2.25e-05,1.07441
-2e-05,1.07493
-1.75e-05,1.07544
-1.5e-05,1.07544
-1.25e-05,1.07596
-1e-05,1.07493
-7.5e-06,1.07493
-5e-06,1.07544
-2.5e-06,1.07596
0,1.07596
2.5e-06,1.07647
5e-06,1.07647
7.5e-06,1.07647
1e-05,1.07596
1.25e-05,1.07596
1.5e-05,1.07647
1.75e-05,1.07751
2e-05,1.07699
2.25e-05,1.07699
2.5e-05,1.07699
2.75e-05,1.07699
3e-05,1.07699
3.25e-05,1.07802
3.5e-05,1.07854
3.75e-05,1.07906
4e-05,1.07854
4.25e-05,1.07854
4.5e-05,1.07802
4.75e-05,1.07751
5e-05,1.07854
5.25e-05,1.07854
5.5e-05,1.07906
5.75e-05,1.07854
6e-05,1.07906
6.25e-05,1.07906
6.5e-05,1.07854
6.75e-05,1.08061
7e-05,1.07957
7.25e-05,1.08061
7.5e-05,1.08009
7.75e-05,1.07957
8e-05,1.07957
8.25e-05,1.08009
8.5e-05,1.08112
8.75e-05,1.08164
9e-05,1.08112
9.25e-05,1.08061
9.5e-05,1.08112
9.75e-05,1.08112
0.0001,1.08112
0.0001025,1.08164
0.000105,1.08215
0.0001075,1.08215
0.00011,1.08164
0.0001125,1.08164
0.000115,1.08215
0.0001175,1.08215
0.00012,1.08319
0.0001225,1.08319
0.000125,1.08319
0.0001275,1.08319
0.00013,1.08319
0.0001325,1.08319
0.000135,1.08319
0.0001375,1.08422
0.00014,1.08422
0.0001425,1.0837
0.000145,1.0837
0.0001475,1.08319
0.00015,1.08422
0.0001525,1.08474
0.000155,1.08525
0.0001575,1.08474
0.00016,1.08525
0.0001625,1.08525
0.000165,1.08525
0.0001675,1.08525
0.00017,1.08525
0.0001725,1.08577
0.000175,1.08629
0.0001775,1.08525
0.00018,1.08629
0.0001825,1.08577
0.000185,1.08577
0.0001875,1.0868
0.00019,1.08732
0.0001925,1.08732
0.000195,1.0868
0.0001975,1.0868
0.0002,1.08732
0.0002025,1.08732
0.000205,1.0868
0.0002075,1.08783
0.00021,1.08835
0.0002125,1.08783
0.000215,1.08783
0.0002175,1.08835
0.00022,1.08835
0.0002225,1.08887
0.000225,1.08938
0.0002275,1.08887
0.00023,1.08938
0.0002325,1.08938
0.000235,1.08835
0.0002375,1.08835
0.00024,1.0899
0.0002425,1.09042
0.000245,1.0899
0.0002475,1.0899
0.00025,1.0899
0.0002525,1.0899
0.000255,1.0899
0.0002575,1.09093
0.00026,1.09042
0.0002625,1.09093
0.000265,1.09093
0.0002675,1.09145
0.00027,1.09145
0.0002725,1.09145
0.000275,1.09197
0.0002775,1.09248
0.00028,1.09197
0.0002825,1.09248
0.000285,1.09248
0.0002875,1.093
0.00029,1.09248
0.0002925,1.093
0.000295,1.093
0.0002975,1.09248
0.0003,1.093
0.0003025,1.09351
0.000305,1.093
0.0003075,1.093
0.00031,1.09455
0.0003125,1.09403
0.000315,1.09351
0.0003175,1.09351
0.00032,1.09403
0.0003225,1.09455
0.000325,1.09455
0.0003275,1.09506
0.00033,1.09558
0.0003325,1.09558
0.000335,1.09506
0.0003375,1.09506
0.00034,1.09506
0.0003425,1.09506
0.000345,1.09506
0.0003475,1.09506
0.00035,1.09455
0.0003525,1.09506
0.000355,1.09506
0.0003575,1.09506
0.00036,1.09506
0.0003625,1.09558
0.000365,1.09506
0.0003675,1.09506
0.00037,1.09506
0.0003725,1.09558
0.000375,1.09506
0.0003775,1.09506
0.00038,1.09506
0.0003825,1.09506
0.000385,1.09403
0.0003875,1.09558
0.00039,1.0961
0.0003925,1.09661
0.000395,1.0961
0.0003975,1.09661
0.0004,1.0961
0.0004025,1.09661
0.000405,1.09713
0.0004075,1.09661
0.00041,1.09765
0.0004125,1.09713
0.000415,1.09713
0.0004175,1.09661
0.00042,1.09713
0.0004225,1.09816
0.000425,1.09816
0.0004275,1.09765
0.00043,1.09868
0.0004325,1.09816
0.000435,1.09816
0.0004375,1.09816
0.00044,1.09868
0.0004425,1.09971
0.000445,1.09971
0.0004475,1.09868
0.00045,1.09919
0.0004525,1.09868
0.000455,1.09919
0.0004575,1.09971
0.00046,1.10023
0.0004625,1.10023
0.000465,1.10023
0.0004675,1.10023
0.00047,1.10023
0.0004725,1.10126
0.000475,1.10178
0.0004775,1.10126
0.00048,1.10126
0.0004825,1.10126
0.000485,1.10126
0.0004875,1.10126
0.00049,1.10178
0.0004925,1.10229
0.000495,1.10178
0.0004975,1.10229
0.0005,1.10178
0.0005025,1.10178
0.000505,1.10229
0.0005075,1.10229
0.00051,1.10333
0.0005125,1.10333
0.000515,1.10333
0.0005175,1.10281
0.00052,1.10333
0.0005225,1.10281
0.000525,1.10384
0.0005275,1.10436
0.00053,1.10436
0.0005325,1.10384
0.000535,1.10436
0.0005375,1.10488
0.00054,1.10384
0.0005425,1.10488
0.000545,1.10539
0.0005475,1.10591
0.00055,1.10539
0.0005525,1.10488
0.000555,1.10436
0.0005575,1.10591
0.00056,1.10591
0.0005625,1.10642
0.000565,1.10539
0.0005675,1.10591
0.00057,1.10591
0.0005725,1.10539
0.000575,1.10591
0.0005775,1.10642
0.00058,1.10694
0.0005825,1.10746
0.000585,1.10746
0.0005875,1.10694
0.00059,1.10694
0.0005925,1.10746
0.000595,1.10746
0.0005975,1.10797
0.0006,1.10746
0.0006025,1.10746
0.000605,1.10746
0.0006075,1.10797
0.00061,1.10797
0.0006125,1.10849
0.000615,1.10901
0.0006175,1.10901
0.00062,1.10849
0.0006225,1.10901
0.000625,1.10901
0.0006275,1.10952
0.00063,1.11004
0.0006325,1.11004
0.000635,1.10952
0.0006375,1.11056
0.00064,1.11004
0.0006425,1.11004
0.000645,1.10952
0.0006475,1.11107
0.00065,1.11107
0.0006525,1.11056
0.000655,1.11056
0.0006575,1.11107
0.00066,1.11107
0.0006625,1.11056
0.000665,1.1121
0.0006675,1.11262
0.00067,1.1121
0.0006725,1.1121
0.000675,1.1121
0.0006775,1.1121
0.00068,1.1121
0.0006825,1.11314
0.000685,1.11314
0.0006875,1.11262
0.00069,1.11365
0.0006925,1.11314
0.000695,1.11365
0.0006975,1.11262
0.0007,1.11365
0.0007025,1.11417
0.000705,1.11417
0.0007075,1.11417
0.00071,1.11417
0.0007125,1.11417
0.000715,1.11417
0.0007175,1.1152
0.00072,1.11469
0.0007225,1.1152
0.000725,1.11469
0.0007275,1.1152
0.00073,1.11469
0.0007325,1.1152
0.000735,1.11572
0.0007375,1.11572
0.00074,1.11572
0.0007425,1.11572
0.000745,1.11572
0.0007475,1.11572
0.00075,1.11675
0.0007525,1.11675
0.000755,1.11675
0.0007575,1.11727
0.00076,1.11675
0.0007625,1.11727
0.000765,1.11727
0.0007675,1.11727
0.00077,1.11778
0.0007725,1.1183
0.000775,1.11778
0.0007775,1.1183
0.00078,1.1183
0.0007825,1.11778
0.000785,1.11882
0.0007875,1.11933
0.00079,1.11882
0.0007925,1.11882
0.000795,1.11882
0.0007975,1.11882
0.0008,1.1183
0.0008025,1.11882
0.000805,1.11985
0.0008075,1.11933
0.00081,1.11933
0.0008125,1.11933
0.000815,1.11985
0.0008175,1.12037
0.00082,1.12037
0.0008225,1.12088
0.000825,1.12088
0.0008275,1.12088
0.00083,1.12037
0.0008325,1.1214
0.000835,1.12088
0.0008375,1.12192
0.00084,1.12192
0.0008425,1.12192
0.000845,1.12243
0.0008475,1.12192
0.00085,1.12243
0.0008525,1.12192
0.000855,1.12243
0.0008575,1.12243
0.00086,1.12295
0.0008625,1.12243
0.000865,1.12295
0.0008675,1.12295
0.00087,1.12295
0.0008725,1.12346
0.000875,1.12346
0.0008775,1.12398
0.00088,1.12398
0.0008825,1.12398
0.000885,1.12398
0.0008875,1.12346
0.00089,1.12501
0.0008925,1.12553
0.000895,1.12501
0.0008975,1.12501
0.0009,1.12501
0.0009025,1.1245
0.000905,1.12501
0.0009075,1.12605
0.00091,1.12605
0.0009125,1.12605
0.000915,1.12553
0.0009175,1.12553
0.00092,1.12605
0.0009225,1.12553
0.000925,1.12656
0.0009275,1.12708
0.00093,1.12708
0.0009325,1.12708
0.000935,1.12708
0.0009375,1.12605
0.00094,1.1276
0.0009425,1.12811
0.000945,1.12811
0.0009475,1.1276
0.00095,1.12811
0.0009525,1.1276
0.000955,1.1276
0.0009575,1.12811
0.00096,1.12811
0.0009625,1.12914
0.000965,1.12914
0.0009675,1.12863
0.00097,1.12863
0.0009725,1.12914
0.000975,1.12914
0.0009775,1.13018
0.00098,1.13018
0.0009825,1.13018
0.000985,1.13018
0.0009875,1.12966
0.00099,1.12966
0.0009925,1.12966
0.000995,1.13069
0.0009975,1.13069
0.001,1.13121
0.0010025,1.13121
0.001005,1.13069
0.0010075,1.13121
0.00101,1.13121
0.0010125,1.13173
0.001015,1.13173
0.0010175,1.13224
0.00102,1.13173
0.0010225,1.13224
0.001025,1.13121
0.0010275,1.13173
0.00103,1.13276
0.0010325,1.13276
0.001035,1.13379
0.0010375,1.13276
0.00104,1.13276
0.0010425,1.13276
0.001045,1.13276
0.0010475,1.13379
0.00105,1.13379
0.0010525,1.13431
0.001055,1.13379
0.0010575,1.13431
0.00106,1.13328
0.0010625,1.13431
0.001065,1.13482
0.0010675,1.13482
0.00107,1.13482
0.0010725,1.13482
0.001075,1.13534
0.0010775,1.13534
0.00108,1.13534
0.0010825,1.13586
0.001085,1.13586
0.0010875,1.13637
0.00109,1.13586
0.0010925,1.13586
0.001095,1.13637
0.0010975,1.13637
0.0011,1.13741
0.0011025,1.13689
0.001105,1.13689
0.0011075,1.13741
0.00111,1.13689
0.0011125,1.13689
0.001115,1.13792
0.0011175,1.13844
0.00112,1.13844
0.0011225,1.13741
0.001125,1.13844
0.0011275,1.13792
0.00113,1.13792
0.0011325,1.13896
0.001135,1.13896
0.0011375,1.13896
0.00114,1.13896
0.0011425,1.13896
0.001145,1.13896
0.0011475,1.13896
0.00115,1.13844
0.0011525,1.13896
0.001155,1.13844
0.0011575,1.13896
0.00116,1.13947
0.0011625,1.13896
0.001165,1.13896
0.0011675,1.13896
0.00117,1.13844
0.0011725,1.13896
0.001175,1.13896
0.0011775,1.13844
0.00118,1.13947
0.0011825,1.13896
0.001185,1.13896
0.0011875,1.13844
0.00119,1.13844
0.0011925,1.13896
0.001195,1.13896
0.0011975,1.13947
0.0012,1.13999
0.0012025,1.13947
0.001205,1.13999
0.0012075,1.13947
0.00121,1.1405
0.0012125,1.13999
0.001215,1.1405
0.0012175,1.14102
0.00122,1.14102
0.0012225,1.1405
0.001225,1.13999
0.0012275,1.1405
0.00123,1.14154
0.0012325,1.14205
0.001235,1.14205
0.0012375,1.14205
0.00124,1.14154
0.0012425,1.14154
0.001245,1.14205
0.0012475,1.14154
0.00125,1.14309
0.0012525,1.14309
0.001255,1.14309
0.0012575,1.14309
0.00126,1.14257
0.0012625,1.14257
0.001265,1.14309
0.0012675,1.14309
0.00127,1.14412
0.0012725,1.1436
0.001275,1.14309
0.0012775,1.14309
0.00128,1.1436
0.0012825,1.14464
0.001285,1.14464
0.0012875,1.14464
0.00129,1.14464
0.0012925,1.14412
0.001295,1.14464
0.0012975,1.14515
0.0013,1.14515
0.0013025,1.14567
0.001305,1.14567
0.0013075,1.14567
0.00131,1.14567
0.0013125,1.14515
0.001315,1.14515
0.0013175,1.14515
0.00132,1.1467
0.0013225,1.14722
0.001325,1.1467
0.0013275,1.14722
0.00133,1.1467
0.0013325,1.1467
0.001335,1.14722
0.0013375,1.14825
0.00134,1.14773
0.0013425,1.14722
0.001345,1.14773
0.0013475,1.14773
0.00135,1.14825
0.0013525,1.14773
0.001355,1.14928
0.0013575,1.14825
0.00136,1.14877
0.0013625,1.14877
0.001365,1.14877
0.0013675,1.14825
0.00137,1.14877
0.0013725,1.1498
0.001375,1.15032
0.0013775,1.15083
0.00138,1.1498
0.0013825,1.1498
0.001385,1.14877
0.0013875,1.14928
0.00139,1.15083
0.0013925,1.15083
0.001395,1.15135
0.0013975,1.15032
0.0014,1.15083
0.0014025,1.15083
0.001405,1.15083
0.0014075,1.15135
0.00141,1.15238
0.0014125,1.15238
0.001415,1.15186
0.0014175,1.15186
0.00142,1.15186
0.0014225,1.15238
0.001425,1.1529
0.0014275,1.1529
0.00143,1.15238
0.0014325,1.1529
0.001435,1.15238
0.0014375,1.1529
0.00144,1.1529
0.0014425,1.15341
0.001445,1.15445
0.0014475,1.15496
0.00145,1.15393
0.0014525,1.15393
0.001455,1.15393
0.0014575,1.15393
0.00146,1.15445
0.0014625,1.15496
0.001465,1.15445
0.0014675,1.15445
0.00147,1.15496
0.0014725,1.15496
0.001475,1.15496
0.0014775,1.15548
0.00148,1.15548
0.0014825,1.156
0.001485,1.156
0.0014875,1.156
0.00149,1.15651
0.0014925,1.15703
0.001495,1.15703
0.0014975,1.15703
0.0015,1.15703
0.0015025,1.15754
0.001505,1.15703
0.0015075,1.15703
0.00151,1.15703
0.0015125,1.15806
0.001515,1.15806
0.0015175,1.15806
0.00152,1.15806
0.0015225,1.15858
0.001525,1.15806
0.0015275,1.15858
0.00153,1.15909
0.0015325,1.15909
0.001535,1.15961
0.0015375,1.15961
0.00154,1.15909
0.0015425,1.15909
0.001545,1.15961
0.0015475,1.16013
0.00155,1.15909
0.0015525,1.15961
0.001555,1.16064
0.0015575,1.16013
0.00156,1.15961
0.0015625,1.16064
0.001565,1.16116
0.0015675,1.16116
0.00157,1.16116
0.0015725,1.16064
0.001575,1.16116
0.0015775,1.16168
0.00158,1.16116
0.0015825,1.16116
0.001585,1.16168
0.0015875,1.16219
0.00159,1.16168
0.0015925,1.16219
0.001595,1.16219
0.0015975,1.16271
0.0016,1.16271
0.0016025,1.16219
0.001605,1.16271
0.0016075,1.16271
0.00161,1.16322
0.0016125,1.16322
0.001615,1.16426
0.0016175,1.16374
0.00162,1.16374
0.0016225,1.16426
0.001625,1.16426
0.0016275,1.16426
0.00163,1.16426
0.0016325,1.16529
0.001635,1.16529
0.0016375,1.16477
0.00164,1.16426
0.0016425,1.16529
0.001645,1.16477
0.0016475,1.16477
0.00165,1.16632
0.0016525,1.16581
0.001655,1.16529
0.0016575,1.16632
0.00166,1.16581
0.0016625,1.16632
0.001665,1.16632
0.0016675,1.16632
0.00167,1.16632
0.0016725,1.16684
0.001675,1.16684
0.0016775,1.16684
0.00168,1.16632
0.0016825,1.16684
0.001685,1.16736
0.0016875,1.16736
0.00169,1.16736
0.0016925,1.16787
0.001695,1.16787
0.0016975,1.16736
0.0017,1.16787
0.0017025,1.1689
0.001705,1.1689
0.0017075,1.16839
0.00171,1.1689
0.0017125,1.16942
0.001715,1.1689
0.0017175,1.1689
0.00172,1.16994
0.0017225,1.16994
0.001725,1.16994
0.0017275,1.16942
0.00173,1.16994
0.0017325,1.16994
0.001735,1.16994
0.0017375,1.17045
0.00174,1.17097
0.0017425,1.17097
0.001745,1.17045
0.0017475,1.17045
0.00175,1.17097
0.0017525,1.17097
0.001755,1.172
0.0017575,1.17149
0.00176,1.17149
0.0017625,1.17149
0.001765,1.17149
0.0017675,1.17149
0.00177,1.172
0.0017725,1.17304
0.001775,1.17252
0.0017775,1.172
0.00178,1.17304
0.0017825,1.17304
0.001785,1.17252
0.0017875,1.17355
0.00179,1.17355
0.0017925,1.17355
0.001795,1.17355
0.0017975,1.17355
0.0018,1.17252
0.0018025,1.17304
0.001805,1.17458
0.0018075,1.17458
0.00181,1.17458
0.0018125,1.17458
0.001815,1.17458
0.0018175,1.17407
0.00182,1.1751
0.0018225,1.17562
0.001825,1.17562
0.0018275,1.17562
0.00183,1.17562
0.0018325,1.17562
0.001835,1.1751
0.0018375,1.17613
0.00184,1.17665
0.0018425,1.17665
0.001845,1.17665
0.0018475,1.17665
0.00185,1.17665
0.0018525,1.17613
0.001855,1.17613
0.0018575,1.17768
0.00186,1.17768
0.0018625,1.1782
0.001865,1.17768
0.0018675,1.17768
0.00187,1.17768
0.0018725,1.17768
0.001875,1.17872
0.0018775,1.17872
0.00188,1.17872
0.0018825,1.17923
0.001885,1.17872
0.0018875,1.1782
0.00189,1.17872
0.0018925,1.17975
0.001895,1.17923
0.0018975,1.17975
0.0019,1.17975
0.0019025,1.17923
0.001905,1.17923
0.0019075,1.17975
0.00191,1.1813
0.0019125,1.1813
0.001915,1.18078
0.0019175,1.18078
0.00192,1.18026
0.0019225,1.1813
0.001925,1.18026
0.0019275,1.18181
0.00193,1.18181
0.0019325,1.18181
0.001935,1.18233
0.0019375,1.18181
0.00194,1.18181
0.0019425,1.1813
0.001945,1.18285
0.0019475,1.18233
0.00195,1.18285
0.0019525,1.18285
0.001955,1.18233
0.0019575,1.18233
0.00196,1.18336
0.0019625,1.18388
0.001965,1.18336
0.0019675,1.18336
0.00197,1.18388
0.0019725,1.18336
0.001975,1.18388
0.0019775,1.18336
0.00198,1.18491
0.0019825,1.18543
0.001985,1.18491
0.0019875,1.1844
0.00199,1.18491
0.0019925,1.1844
0.001995,1.18543
0.0019975,1.18543
0.002,1.18594
0.0020025,1.18543
0.002005,1.18594
0.0020075,1.18594
0.00201,1.18543
0.0020125,1.18594
0.002015,1.18646
0.0020175,1.18646
0.00202,1.18698
0.0020225,1.18698
0.002025,1.18749
0.0020275,1.18698
0.00203,1.18749
0.0020325,1.18801
0.002035,1.18749
0.0020375,1.18801
0.00204,1.18801
0.0020425,1.18801
0.002045,1.18749
0.0020475,1.18749
0.00205,1.18801
0.0020525,1.18801
0.002055,1.18853
0.0020575,1.18853
0.00206,1.18904
0.0020625,1.18801
0.002065,1.18904
0.0020675,1.18956
0.00207,1.18956
0.0020725,1.18904
0.002075,1.18956
0.0020775,1.18904
0.00208,1.19008
0.0020825,1.19008
0.002085,1.19111
0.0020875,1.19059
0.00209,1.19059
0.0020925,1.19111
0.002095,1.19162
0.0020975,1.19059
0.0021,1.19111
0.0021025,1.19162
0.002105,1.19111
0.0021075,1.19162
0.00211,1.19214
0.0021125,1.19162
0.002115,1.19162
0.0021175,1.19266
0.00212,1.19214
0.0021225,1.19214
0.002125,1.19266
0.0021275,1.19266
0.00213,1.19266
0.0021325,1.19266
0.002135,1.19369
0.0021375,1.19317
0.00214,1.19369
0.0021425,1.19317
0.002145,1.19369
0.0021475,1.19421
0.00215,1.19369
0.0021525,1.19421
0.002155,1.19472
0.0021575,1.19421
0.00216,1.19472
0.0021625,1.19524
0.002165,1.19472
0.0021675,1.19472
0.00217,1.19576
0.0021725,1.19576
0.002175,1.19627
0.0021775,1.19576
0.00218,1.19576
0.0021825,1.19576
0.002185,1.19576
0.0021875,1.19627
0.00219,1.19627
0.0021925,1.19627
0.002195,1.19576
0.0021975,1.19627
0.0022,1.19679
0.0022025,1.19627
0.002205,1.19782
0.0022075,1.19782
0.00221,1.1973
0.0022125,1.19782
0.002215,1.19782
0.0022175,1.19782
0.00222,1.19782
0.0022225,1.19885
0.002225,1.19885
0.0022275,1.19834
0.00223,1.19834
0.0022325,1.19885
0.002235,1.19885
0.0022375,1.19885
0.00224,1.19937
0.0022425,1.19989
0.002245,1.2004
0.0022475,1.19989
0.00225,1.2004
0.0022525,1.19989
0.002255,1.19937
0.0022575,1.2004
0.00226,1.2004
0.0022625,1.19937
0.002265,1.2004
0.0022675,1.2004
0.00227,1.20092
0.0022725,1.2004
0.002275,1.20195
0.0022775,1.20195
0.00228,1.20144
0.0022825,1.20144
0.002285,1.20144
0.0022875,1.20144
0.00229,1.20195
0.0022925,1.20247
0.002295,1.20298
0.0022975,1.20298
0.0023,1.20195
0.0023025,1.20195
0.002305,1.20247
0.0023075,1.20298
0.00231,1.2035
0.0023125,1.2035
0.002315,1.2035
0.0023175,1.2035
0.00232,1.2035
0.0023225,1.2035
0.002325,1.20453
0.0023275,1.20453
0.00233,1.20453
0.0023325,1.20505
0.002335,1.20453
0.0023375,1.20505
0.00234,1.20453
0.0023425,1.20453
0.002345,1.20557
0.0023475,1.20505
0.00235,1.20557
0.0023525,1.20608
0.002355,1.20557
0.0023575,1.20557
0.00236,1.20608
0.0023625,1.2066
0.002365,1.20608
0.0023675,1.2066
0.00237,1.2066
0.0023725,1.2066
0.002375,1.20608
0.0023775,1.20712
0.00238,1.20866
0.0023825,1.20815
0.002385,1.20815
0.0023875,1.20763
0.00239,1.20763
0.0023925,1.20763
0.002395,1.20866
0.0023975,1.20815
0.0024,1.20815
0.0024025,1.20866
0.002405,1.20866
0.0024075,1.20866
0.00241,1.20866
0.0024125,1.2097
0.002415,1.2097
0.0024175,1.2097
0.00242,1.20918
0.0024225,1.20918
0.002425,1.2097
0.0024275,1.2097
0.00243,1.21073
0.0024325,1.21073
0.002435,1.21125
0.0024375,1.21125
0.00244,1.21073
0.0024425,1.21073
0.002445,1.21073
0.0024475,1.21125
0.00245,1.21176
0.0024525,1.21176
0.002455,1.21176
0.0024575,1.21176
0.00246,1.21228
0.0024625,1.21176
0.002465,1.2128
0.0024675,1.2128
0.00247,1.2128
0.0024725,1.2128
0.002475,1.21228
0.0024775,1.2128
0.00248,1.21228
0.0024825,1.21383
0.002485,1.21383
0.0024875,1.21383
0.00249,1.21383
0.0024925,1.21331
0.002495,1.21383
0.0024975,1.21383
0.0025,1.21434
0.0025025,1.21486
0.002505,1.21434
0.0025075,1.21434
0.00251,1.21434
0.0025125,1.21434
0.002515,1.21434
0.0025175,1.21589
0.00252,1.21589
0.0025225,1.21589
0.002525,1.21589
0.0025275,1.21538
0.00253,1.21486
0.0025325,1.21538
0.002535,1.21641
0.0025375,1.21693
0.00254,1.21693
0.0025425,1.21641
0.002545,1.21693
0.0025475,1.21693
0.00255,1.21693
0.0025525,1.21796
0.002555,1.21744
0.0025575,1.21744
0.00256,1.21796
0.0025625,1.21744
0.002565,1.21796
0.0025675,1.21796
0.00257,1.21848
0.0025725,1.21848
0.002575,1.21899
0.0025775,1.21848
0.00258,1.21848
0.0025825,1.21848
0.002585,1.21899
0.0025875,1.21951
0.00259,1.21951
0.0025925,1.21951
0.002595,1.21951
0.0025975,1.21899
0.0026,1.21951
0.0026025,1.22002
0.002605,1.22106
0.0026075,1.22054
0.00261,1.22106
0.0026125,1.22106
0.002615,1.22054
0.0026175,1.22054
0.00262,1.22106
0.0026225,1.22106
0.002625,1.22209
0.0026275,1.22157
0.00263,1.22157
0.0026325,1.22157
0.002635,1.22157
0.0026375,1.22209
0.00264,1.22209
0.0026425,1.22312
0.002645,1.22261
0.0026475,1.22209
0.00265,1.22261
0.0026525,1.22209
0.002655,1.22312
0.0026575,1.22312
0.00266,1.22416
0.0026625,1.22364
0.002665,1.22364
0.0026675,1.22364
0.00267,1.22364
0.0026725,1.22467
0.002675,1.22467
0.0026775,1.22519
0.00268,1.22519
0.0026825,1.22416
0.002685,1.22519
0.0026875,1.22467
0.00269,1.22519
0.0026925,1.22519
0.002695,1.2257
0.0026975,1.22622
0.0027,1.2257
0.0027025,1.2257
0.002705,1.22622
0.0027075,1.22622
0.00271,1.22622
0.0027125,1.22674
0.002715,1.22674
0.0027175,1.22674
0.00272,1.22674
0.0027225,1.22674
0.002725,1.22777
0.0027275,1.22777
0.00273,1.22777
0.0027325,1.22777
0.002735,1.22777
0.0027375,1.22777
0.00274,1.22777
0.0027425,1.22829
0.002745,1.22829
0.0027475,1.2288
0.00275,1.22829
0.0027525,1.22829
0.002755,1.22829
0.0027575,1.2288
0.00276,1.22984
0.0027625,1.22984
0.002765,1.22984
0.0027675,1.22932
0.00277,1.2288
0.0027725,1.22932
0.002775,1.22984
0.0027775,1.23087
0.00278,1.23138
0.0027825,1.23087
0.002785,1.23035
0.0027875,1.22984
0.00279,1.23035
0.0027925,1.23138
0.002795,1.2319
0.0027975,1.23138
0.0028,1.23138
0.0028025,1.23138
0.002805,1.2319
0.0028075,1.2319
0.00281,1.23138
0.0028125,1.23242
0.002815,1.23293
0.0028175,1.23242
0.00282,1.2319
0.0028225,1.2319
0.002825,1.23242
0.0028275,1.23242
0.00283,1.23345
0.0028325,1.23345
0.002835,1.23345
0.0028375,1.23397
0.00284,1.23345
0.0028425,1.23345
0.002845,1.23397
0.0028475,1.23397
0.00285,1.23448
0.0028525,1.23448
0.002855,1.235
0.0028575,1.235
0.00286,1.23552
0.0028625,1.23552
0.002865,1.23552
0.0028675,1.23552
0.00287,1.235
0.0028725,1.23552
0.002875,1.23603
0.0028775,1.23552
0.00288,1.23552
0.0028825,1.23655
0.002885,1.23655
0.0028875,1.23603
0.00289,1.23655
0.0028925,1.23655
0.002895,1.23655
0.0028975,1.23655
0.0029,1.23758
0.0029025,1.23758
0.002905,1.23758
0.0029075,1.23758
0.00291,1.23758
0.0029125,1.23758
0.002915,1.2381
0.0029175,1.2381
0.00292,1.2381
0.0029225,1.2381
0.002925,1.2381
0.0029275,1.23861
0.00293,1.23913
0.0029325,1.23965
0.002935,1.23965
0.0029375,1.23913
0.00294,1.23913
0.0029425,1.24016
0.002945,1.24016
0.0029475,1.23965
0.00295,1.24068
0.0029525,1.24068
0.002955,1.2412
0.0029575,1.24068
0.00296,1.24016
0.0029625,1.24068
0.002965,1.24068
0.0029675,1.24171
0.00297,1.24223
0.0029725,1.24171
0.002975,1.2412
0.0029775,1.24171
0.00298,1.2412
0.0029825,1.24223
0.002985,1.24223
0.0029875,1.24223
0.00299,1.24274
0.0029925,1.24274
0.002995,1.24223
0.0029975,1.24274
0.003,1.24274
0.0030025,1.24326
0.003005,1.24326
0.0030075,1.24378
0.00301,1.24378
0.0030125,1.24326
0.003015,1.24326
0.0030175,1.24378
0.00302,1.24429
0.0030225,1.24481
0.003025,1.24481
0.0030275,1.24429
0.00303,1.24429
0.0030325,1.24378
0.003035,1.24429
0.0030375,1.24533
0.00304,1.24584
0.0030425,1.24636
0.003045,1.24533
0.0030475,1.24584
0.00305,1.24584
0.0030525,1.24584
0.003055,1.24688
0.0030575,1.24688
0.00306,1.24636
0.0030625,1.24636
0.003065,1.24636
0.0030675,1.24739
0.00307,1.24688
0.0030725,1.24791
0.003075,1.24791
0.0030775,1.24791
0.00308,1.24688
0.0030825,1.24739
0.003085,1.24739
0.0030875,1.24739
0.00309,1.24842
0.0030925,1.24842
0.003095,1.24842
0.0030975,1.24842
0.0031,1.24842
0.0031025,1.24842
0.003105,1.24842
0.0031075,1.24997
0.00311,1.24997
0.0031125,1.24946
0.003115,1.24946
0.0031175,1.24946
0.00312,1.24894
0.0031225,1.24946
0.003125,1.24997
0.0031275,1.25049
0.00313,1.25049
0.0031325,1.25101
0.003135,1.24997
0.0031375,1.25049
0.00314,1.25101
0.0031425,1.25152
0.003145,1.25204
0.0031475,1.25152
0.00315,1.25204
0.0031525,1.25152
0.003155,1.25152
0.0031575,1.25152
0.00316,1.25204
0.0031625,1.25204
0.003165,1.25307
0.0031675,1.25256
0.00317,1.25256
0.0031725,1.25256
0.003175,1.25307
0.0031775,1.25359
0.00318,1.25359
0.0031825,1.25307
0.003185,1.25359
0.0031875,1.25307
0.00319,1.25307
0.0031925,1.25359
0.003195,1.25462
0.0031975,1.25462
0.0032,1.25462
0.0032025,1.25411
0.003205,1.25411
0.0032075,1.25462
0.00321,1.25514
0.0032125,1.25514
0.003215,1.25565
0.0032175,1.25617
0.00322,1.25514
0.0032225,1.25514
0.003225,1.25514
0.0032275,1.25565
0.00323,1.25669
0.0032325,1.25669
0.003235,1.2572
0.0032375,1.25669
0.00324,1.25669
0.0032425,1.2572
0.003245,1.2572
0.0032475,1.25772
0.00325,1.25772
0.0032525,1.25772
0.003255,1.25772
0.0032575,1.25772
0.00326,1.25772
0.0032625,1.25824
0.003265,1.25824
0.0032675,1.25772
0.00327,1.25875
0.0032725,1.25927
0.003275,1.25824
0.0032775,1.25824
0.00328,1.25927
0.0032825,1.25927
0.003285,1.25979
0.0032875,1.25979
0.00329,1.25927
0.0032925,1.25979
0.003295,1.25979
0.0032975,1.2603
0.0033,1.2603
0.0033025,1.2603
0.003305,1.26082
0.0033075,1.2603
0.00331,1.2603
0.0033125,1.26082
0.003315,1.26185
0.0033175,1.26133
0.00332,1.26185
0.0033225,1.26133
0.003325,1.26133
0.0033275,1.26185
0.00333,1.26133
0.0033325,1.26185
0.003335,1.26237
0.0033375,1.26237
0.00334,1.26288
0.0033425,1.26237
0.003345,1.26288
0.0033475,1.26288
0.00335,1.2634
0.0033525,1.2634
0.003355,1.26288
0.0033575,1.2634
0.00336,1.2634
0.0033625,1.2634
0.003365,1.2634
0.0033675,1.26495
0.00337,1.26443
0.0033725,1.26443
0.003375,1.26495
0.0033775,1.26495
0.00338,1.26495
0.0033825,1.26547
0.003385,1.26495
0.0033875,1.26495
0.00339,1.26495
0.0033925,1.26547
0.003395,1.26547
0.0033975,1.26547
0.0034,1.26598
0.0034025,1.2665
0.003405,1.26701
0.0034075,1.2665
0.00341,1.26598
0.0034125,1.26598
0.003415,1.2665
0.0034175,1.2665
0.00342,1.26753
0.0034225,1.26701
0.003425,1.26701
0.0034275,1.26701
0.00343,1.26805
0.0034325,1.2665
0.003435,1.26805
0.0034375,1.26805
0.00344,1.26856
0.0034425,1.26856
0.003445,1.26856
0.0034475,1.26805
0.00345,1.26805
0.0034525,1.26908
0.003455,1.2696
0.0034575,1.2696
0.00346,1.2696
0.0034625,1.27011
0.003465,1.26908
0.0034675,1.26856
0.00347,1.26908
0.0034725,1.2696
0.003475,1.27011
0.0034775,1.27063
0.00348,1.27011
0.0034825,1.27063
0.003485,1.27063
0.0034875,1.27115
0.00349,1.27166
0.0034925,1.27115
0.003495,1.27115
0.0034975,1.27166
0.0035,1.27218
0.0035025,1.27115
0.003505,1.27218
0.0035075,1.27269
0.00351,1.27269
0.0035125,1.27269
0.003515,1.27269
0.0035175,1.27269
0.00352,1.27218
0.0035225,1.27269
0.003525,1.27321
0.0035275,1.27321
0.00353,1.27321
0.0035325,1.27373
0.003535,1.27373
0.0035375,1.27321
0.00354,1.27373
0.0035425,1.27424
0.003545,1.27424
0.0035475,1.27424
0.00355,1.27424
0.0035525,1.27476
0.003555,1.27476
0.0035575,1.27476
0.00356,1.27579
0.0035625,1.27528
0.003565,1.27476
0.0035675,1.27528
0.00357,1.27579
0.0035725,1.27579
0.003575,1.27631
0.0035775,1.27683
0.00358,1.27683
0.0035825,1.27631
0.003585,1.27734
0.0035875,1.27683
0.00359,1.27683
0.0035925,1.27786
0.003595,1.27786
0.0035975,1.27734
0.0036,1.27683
0.0036025,1.27786
0.003605,1.27786
0.0036075,1.27786
0.00361,1.27889
0.0036125,1.27837
0.003615,1.27837
0.0036175,1.27786
0.00362,1.27837
0.0036225,1.27837
0.003625,1.27837
0.0036275,1.27992
0.00363,1.27992
0.0036325,1.27992
0.003635,1.27992
0.0036375,1.27889
0.00364,1.27992
0.0036425,1.27992
0.003645,1.28044
0.0036475,1.28096
0.00365,1.28044
0.0036525,1.28044
0.003655,1.28044
0.0036575,1.28096
0.00366,1.28096
0.0036625,1.28199
0.003665,1.28199
0.0036675,1.28199
0.00367,1.28199
0.0036725,1.28199
0.003675,1.28147
0.0036775,1.28147
0.00368,1.28251
0.0036825,1.28251
0.003685,1.28251
0.0036875,1.28302
0.00369,1.28251
0.0036925,1.28302
0.003695,1.28251
0.0036975,1.28302
0.0037,1.28354
0.0037025,1.28405
0.003705,1.28354
0.0037075,1.28354
0.00371,1.28354
0.0037125,1.28405
0.003715,1.28457
0.0037175,1.28457
0.00372,1.28509
0.0037225,1.28405
0.003725,1.28405
0.0037275,1.28457
0.00373,1.28509
0.0037325,1.2856
0.003735,1.2856
0.0037375,1.2856
0.00374,1.28509
0.0037425,1.28509
0.003745,1.2856
0.0037475,1.2856
0.00375,1.28664
0.0037525,1.28612
0.003755,1.28664
0.0037575,1.28664
0.00376,1.28612
0.0037625,1.28664
0.003765,1.28715
0.0037675,1.28767
0.00377,1.28715
0.0037725,1.28715
0.003775,1.28715
0.0037775,1.28767
0.00378,1.28767
0.0037825,1.28819
0.003785,1.28922
0.0037875,1.28922
0.00379,1.2887
0.0037925,1.2887
0.003795,1.28819
0.0037975,1.2887
0.0038,1.28973
0.0038025,1.28973
0.003805,1.28973
0.0038075,1.28973
0.00381,1.28922
0.0038125,1.28922
0.003815,1.28973
0.0038175,1.29025
0.00382,1.29077
0.0038225,1.29077
0.003825,1.29025
0.0038275,1.29077
0.00383,1.29077
0.0038325,1.29025
0.003835,1.29025
0.0038375,1.2918
0.00384,1.2918
0.0038425,1.29128
0.003845,1.29128
0.0038475,1.2918
0.00385,1.29128
0.0038525,1.29232
0.003855,1.29283
0.0038575,1.29232
0.00386,1.29283
0.0038625,1.29335
0.003865,1.29232
0.0038675,1.29232
0.00387,1.29335
0.0038725,1.29335
0.003875,1.29387
0.0038775,1.29387
0.00388,1.29335
0.0038825,1.29387
0.003885,1.29387
0.0038875,1.29438
0.00389,1.29438
0.0038925,1.29438
0.003895,1.29438
0.0038975,1.2949
0.0039,1.29438
0.0039025,1.29438
0.003905,1.29541
0.0039075,1.29541
0.00391,1.29541
0.0039125,1.29541
0.003915,1.29593
0.0039175,1.29593
0.00392,1.2949
0.0039225,1.29696
0.003925,1.29645
0.0039275,1.29645
0.00393,1.29593
0.0039325,1.29696
0.003935,1.29645
0.0039375,1.29645
0.00394,1.29748
0.0039425,1.29748
0.003945,1.29748
0.0039475,1.29748
0.00395,1.298
0.0039525,1.29748
0.003955,1.29748
0.0039575,1.298
0.00396,1.29851
0.0039625,1.29851
0.003965,1.29851
0.0039675,1.29851
0.00397,1.29851
0.0039725,1.29903
0.003975,1.29903
0.0039775,1.29903
0.00398,1.30006
0.0039825,1.30006
0.003985,1.29955
0.0039875,1.29955
0.00399,1.30006
0.0039925,1.30058
0.003995,1.30058
0.0039975,1.30058
0.004,1.30109
0.0040025,1.30006
0.004005,1.30058
0.0040075,1.30109
0.00401,1.30161
0.0040125,1.30109
0.004015,1.30109
0.0040175,1.30161
0.00402,1.30161
0.0040225,1.30109
0.004025,1.30161
0.0040275,1.30213
0.00403,1.30264
0.0040325,1.30213
0.004035,1.30213
0.0040375,1.30213
0.00404,1.30316
0.0040425,1.30368
0.004045,1.30368
0.0040475,1.30368
0.00405,1.30368
0.0040525,1.30316
0.004055,1.30368
0.0040575,1.30368
0.00406,1.30419
0.0040625,1.30523
0.004065,1.30419
0.0040675,1.30419
0.00407,1.30471
0.0040725,1.30419
0.004075,1.30419
0.0040775,1.30523
0.00408,1.30523
0.0040825,1.30523
0.004085,1.30523
0.0040875,1.30523
0.00409,1.30574
0.0040925,1.30626
0.004095,1.30677
0.0040975,1.30677
0.0041,1.30574
0.0041025,1.30626
0.004105,1.30626
0.0041075,1.30677
0.00411,1.30626
0.0041125,1.30781
0.004115,1.30781
0.0041175,1.30781
0.00412,1.30729
0.0041225,1.30781
0.004125,1.30781
0.0041275,1.30781
0.00413,1.30832
0.0041325,1.30781
0.004135,1.30884
0.0041375,1.30832
0.00414,1.30832
0.0041425,1.30936
0.004145,1.30884
0.0041475,1.30936
0.00415,1.30936
0.0041525,1.30936
0.004155,1.30936
0.0041575,1.30936
0.00416,1.30987
0.0041625,1.30884
0.004165,1.31091
0.0041675,1.31039
0.00417,1.31039
0.0041725,1.31039
0.004175,1.30987
0.0041775,1.30987
0.00418,1.31142
0.0041825,1.31194
0.004185,1.31194
0.0041875,1.31194
0.00419,1.31142
0.0041925,1.31142
0.004195,1.31142
0.0041975,1.31142
0.0042,1.31297
0.0042025,1.31245
0.004205,1.31245
0.0042075,1.31245
0.00421,1.31245
0.0042125,1.31297
0.004215,1.31297
0.0042175,1.31349
0.00422,1.31297
0.0042225,1.31297
0.004225,1.31349
0.0042275,1.31297
0.00423,1.31349
0.0042325,1.31349
0.004235,1.31452
0.0042375,1.31452
0.00424,1.31504
0.0042425,1.314
0.004245,1.31452
0.0042475,1.31504
0.00425,1.31452
0.0042525,1.31555
0.004255,1.31555
0.0042575,1.31555
0.00426,1.31504
0.0042625,1.31555
0.004265,1.31504
0.0042675,1.31555
0.00427,1.31607
0.0042725,1.31659
0.004275,1.3171
0.0042775,1.31607
0.00428,1.31659
0.0042825,1.31659
0.004285,1.31659
0.0042875,1.31762
0.00429,1.31762
0.0042925,1.31762
0.004295,1.3171
0.0042975,1.31762
0.0043,1.3171
0.0043025,1.31813
0.004305,1.31813
0.0043075,1.31813
0.00431,1.31813
0.0043125,1.31813
0.004315,1.31865
0.0043175,1.31865
0.00432,1.31917
0.0043225,1.31917
0.004325,1.31917
0.0043275,1.31917
0.00433,1.31917
0.0043325,1.31968
0.004335,1.31968
0.0043375,1.31968
0.00434,1.32072
0.0043425,1.32072
0.004345,1.32072
0.0043475,1.32072
0.00435,1.31968
0.0043525,1.31968
0.004355,1.32072
0.0043575,1.32072
0.00436,1.32072
0.0043625,1.32175
0.004365,1.32175
0.0043675,1.32123
0.00437,1.32123
0.0043725,1.32175
0.004375,1.32175
0.0043775,1.32278
0.00438,1.32227
0.0043825,1.32175
0.004385,1.32227
0.0043875,1.32175
0.00439,1.32227
0.0043925,1.3233
0.004395,1.3233
0.0043975,1.3233
0.0044,1.3233
0.0044025,1.32278
0.004405,1.32278
0.0044075,1.32381
0.00441,1.32433
0.0044125,1.32485
0.004415,1.32433
0.0044175,1.32433
0.00442,1.32433
0.0044225,1.32433
0.004425,1.32485
0.0044275,1.32588
0.00443,1.32485
0.0044325,1.32536
0.004435,1.32588
0.0044375,1.32588
0.00444,1.32536
0.0044425,1.3264
0.004445,1.3264
0.0044475,1.32588
0.00445,1.32588
0.0044525,1.32588
0.004455,1.3264
0.0044575,1.3264
0.00446,1.32743
0.0044625,1.32743
0.004465,1.32743
0.0044675,1.32743
0.00447,1.32743
0.0044725,1.32743
0.004475,1.32743
0.0044775,1.32846
0.00448,1.32795
0.0044825,1.32795
0.004485,1.32743
0.0044875,1.32795
0.00449,1.32898
0.0044925,1.32795
0.004495,1.32949
0.0044975,1.32949
0.0045,1.32949
0.0045025,1.33001
0.004505,1.32949
0.0045075,1.32949
0.00451,1.32949
0.0045125,1.33053
0.004515,1.32949
0.0045175,1.33001
0.00452,1.33001
0.0045225,1.33053
0.004525,1.33053
0.0045275,1.33104
0.00453,1.33104
0.0045325,1.33053
0.004535,1.33104
0.0045375,1.33104
0.00454,1.33104
0.0045425,1.33156
0.004545,1.33104
0.0045475,1.33208
0.00455,1.33208
0.0045525,1.33208
0.004555,1.33259
0.0045575,1.33156
0.00456,1.33208
0.0045625,1.33259
0.004565,1.33363
0.0045675,1.33363
0.00457,1.33414
0.0045725,1.33311
0.004575,1.33363
0.0045775,1.33363
0.00458,1.33363
0.0045825,1.33466
0.004585,1.33414
0.0045875,1.33466
0.00459,1.33517
0.0045925,1.33466
0.004595,1.33414
0.0045975,1.33517
0.0046,1.33517
0.0046025,1.33517
0.004605,1.33466
0.0046075,1.33569
0.00461,1.33517
0.0046125,1.33517
0.004615,1.33621
0.0046175,1.33621
0.00462,1.33672
0.0046225,1.33621
0.004625,1.33569
0.0046275,1.33621
0.00463,1.33621
0.0046325,1.33672
0.004635,1.33724
0.0046375,1.33724
0.00464,1.33724
0.0046425,1.33776
0.004645,1.33724
0.0046475,1.33724
0.00465,1.33776
0.0046525,1.33827
0.004655,1.33827
0.0046575,1.33879
0.00466,1.33879
0.0046625,1.33879
0.004665,1.33827
0.0046675,1.33879
0.00467,1.33879
0.0046725,1.33931
0.004675,1.33931
0.0046775,1.33879
0.00468,1.33931
0.0046825,1.33879
0.004685,1.34034
0.0046875,1.34034
0.00469,1.34034
0.0046925,1.34034
0.004695,1.34137
0.0046975,1.34034
0.0047,1.34034
0.0047025,1.34137
0.004705,1.34137
0.0047075,1.34137
0.00471,1.34137
0.0047125,1.34137
0.004715,1.34189
0.0047175,1.34189
0.00472,1.34189
0.0047225,1.3424
0.004725,1.34189
0.0047275,1.34292
0.00473,1.34292
0.0047325,1.34292
0.004735,1.3424
0.0047375,1.34292
0.00474,1.3424
0.0047425,1.3424
0.004745,1.3424
0.0047475,1.3424
0.00475,1.34189
0.0047525,1.34137
0.004755,1.34085
0.0047575,1.34137
0.00476,1.34085
0.0047625,1.34034
0.004765,1.34034
0.0047675,1.34034
0.00477,1.34085
0.0047725,1.34034
0.004775,1.34085
0.0047775,1.34034
0.00478,1.34085
0.0047825,1.33931
0.004785,1.34034
0.0047875,1.34034
0.00479,1.34085
0.0047925,1.34085
0.004795,1.34034
0.0047975,1.34034
0.0048,1.34085
0.0048025,1.34085
0.004805,1.34034
0.0048075,1.34085
0.00481,1.34034
0.0048125,1.34034
0.004815,1.34034
0.0048175,1.34085
0.00482,1.34034
0.0048225,1.34034
0.004825,1.27321
0.0048275,0.973718
0.00483,0.697978
0.0048325,0.631367
0.004835,0.640661
0.0048375,0.639629
0.00484,0.639112
0.0048425,0.639112
0.004845,0.639629
0.0048475,0.640145
0.00485,0.639112
0.0048525,0.639629
0.004855,0.640145
0.0048575,0.640145
0.00486,0.640661
0.0048625,0.641178
0.004865,0.641694
0.0048675,0.641694
0.00487,0.64221
0.0048725,0.64221
0.004875,0.643243
0.0048775,0.643243
0.00488,0.643759
0.0048825,0.644792
0.004885,0.644276
0.0048875,0.644792
0.00489,0.644792
0.0048925,0.645825
0.004895,0.645309
0.0048975,0.645309
0.0049,0.645309
0.0049025,0.646341
0.004905,0.646341
0.0049075,0.646341
0.00491,0.646858
0.0049125,0.647374
0.004915,0.646858
0.0049175,0.646858
0.00492,0.647374
0.0049225,0.647374
0.004925,0.647374
0.0049275,0.647374
0.00493,0.648407
0.0049325,0.648407
0.004935,0.648407
0.0049375,0.64789
0.00494,0.647374
0.0049425,0.648407
0.004945,0.64789
0.0049475,0.648407
0.00495,0.64789
0.0049525,0.648407
0.004955,0.648407
0.0049575,0.64789
0.00496,0.648407
0.0049625,0.64789
0.004965,0.64789
0.0049675,0.648407
0.00497,0.648407
0.0049725,0.648407
0.004975,0.648923
0.0049775,0.648407
0.00498,0.648407
0.0049825,0.648407
0.004985,0.64944
0.0049875,0.648923
0.00499,0.648407
0.0049925,0.648407
0.004995,0.648407
0.0049975,0.648923
0.005,0.648407
0.0050025,0.648923
0.005005,0.64944
0.0050075,0.64944
0.00501,0.64944
0.0050125,0.64944
0.005015,0.649956
0.0050175,0.650472
0.00502,0.650472
0.0050225,0.650989
0.005025,0.650472
0.0050275,0.650472
0.00503,0.650472
0.0050325,0.651505
0.005035,0.651505
0.0050375,0.650989
0.00504,0.651505
0.0050425,0.652021
0.005045,0.652021
0.0050475,0.651505
0.00505,0.652021
0.0050525,0.652021
0.005055,0.652538
0.0050575,0.653054
0.00506,0.652538
0.0050625,0.652538
0.005065,0.652021
0.0050675,0.65357
0.00507,0.653054
0.0050725,0.65357
0.005075,0.65357
0.0050775,0.65357
0.00508,0.653054
0.0050825,0.653054
0.005085,0.654087
0.0050875,0.654087
0.00509,0.654087
0.0050925,0.654087
0.005095,0.654603
0.0050975,0.654603
0.0051,0.654087
0.0051025,0.654603
0.005105,0.655636
0.0051075,0.655636
0.00511,0.65512
0.0051125,0.655636
0.005115,0.65512
0.0051175,0.655636
0.00512,0.656152
0.0051225,0.656152
0.005125,0.656669
0.0051275,0.656669
0.00513,0.656669
0.0051325,0.656669
0.005135,0.656152
0.0051375,0.657185
0.00514,0.657701
0.0051425,0.657185
0.005145,0.657701
0.0051475,0.657701
0.00515,0.657701
0.0051525,0.658218
0.005155,0.658218
0.0051575,0.658218
0.00516,0.658218
0.0051625,0.658734
0.005165,0.658734
0.0051675,0.658218
0.00517,0.657701
0.0051725,0.65925
0.005175,0.65925
0.0051775,0.65925
0.00518,0.65925
0.0051825,0.65925
0.005185,0.659767
0.0051875,0.65925
0.00519,0.660283
0.0051925,0.659767
0.005195,0.660283
0.0051975,0.6608
0.0052,0.660283
0.0052025,0.659767
0.005205,0.660283
0.0052075,0.6608
0.00521,0.661316
0.0052125,0.661316
0.005215,0.6608
0.0052175,0.6608
0.00522,0.6608
0.0052225,0.661832
0.005225,0.662349
0.0052275,0.661832
0.00523,0.662349
0.0052325,0.662349
0.005235,0.662349
0.0052375,0.662349
0.00524,0.662865
0.0052425,0.663381
0.005245,0.663381
0.0052475,0.663381
0.00525,0.663381
0.0052525,0.663381
0.005255,0.663381
0.0052575,0.663898
0.00526,0.664414
0.0052625,0.664414
0.005265,0.664414
0.0052675,0.664931
0.00527,0.663898
0.0052725,0.664414
0.005275,0.665447
0.0052775,0.664931
0.00528,0.664414
0.0052825,0.664931
0.005285,0.665447
0.0052875,0.664931
0.00529,0.664931
0.0052925,0.665447
0.005295,0.66648
0.0052975,0.665963
0.0053,0.665963
0.0053025,0.66648
0.005305,0.66648
0.0053075,0.66648
0.00531,0.66648
0.0053125,0.666996
0.005315,0.667512
0.0053175,0.667512
0.00532,0.666996
0.0053225,0.667512
0.005325,0.666996
0.0053275,0.668029
0.00533,0.669061
0.0053325,0.668545
0.005335,0.668029
0.0053375,0.668545
0.00534,0.669061
0.0053425,0.668029
0.005345,0.669578
0.0053475,0.669578
0.00535,0.669578
0.0053525,0.669061
0.005355,0.669578
0.0053575,0.669061
0.00536,0.669061
0.0053625,0.670611
0.005365,0.670094
0.0053675,0.669578
0.00537,0.670094
0.0053725,0.669578
0.005375,0.670611
0.0053775,0.670611
0.00538,0.671127
0.0053825,0.671643
0.005385,0.671127
0.0053875,0.671127
0.00539,0.670611
0.0053925,0.671127
0.005395,0.671643
0.0053975,0.67216
0.0054,0.67216
0.0054025,0.67216
0.005405,0.67216
0.0054075,0.67216
0.00541,0.67216
0.0054125,0.67216
0.005415,0.673709
0.0054175,0.673192
0.00542,0.673192
0.0054225,0.673709
0.005425,0.673192
0.0054275,0.673192
0.00543,0.673192
0.0054325,0.674225
0.005435,0.673709
0.0054375,0.674225
0.00544,0.674225
0.0054425,0.673709
0.005445,0.674225
0.0054475,0.674225
0.00545,0.675258
0.0054525,0.675258
0.005455,0.675258
0.0054575,0.674741
0.00546,0.675774
0.0054625,0.675258
0.005465,0.675774
0.0054675,0.676291
0.00547,0.676807
0.0054725,0.676291
0.005475,0.675774
0.0054775,0.675258
0.00548,0.675774
0.0054825,0.676291
0.005485,0.67784
0.0054875,0.67784
0.00549,0.677323
0.0054925,0.67784
0.005495,0.676807
0.0054975,0.676807
0.0055,0.67784
0.0055025,0.677323
0.005505,0.678356
0.0055075,0.678872
0.00551,0.67784
0.0055125,0.67784
0.005515,0.678356
0.0055175,0.678872
0.00552,0.679389
0.0055225,0.678872
0.005525,0.678872
0.0055275,0.679389
0.00553,0.678872
0.0055325,0.678872
0.005535,0.679389
0.0055375,0.680422
0.00554,0.679905
0.0055425,0.680422
0.005545,0.680422
0.0055475,0.679905
0.00555,0.679905
0.0055525,0.680938
0.005555,0.681454
0.0055575,0.681454
0.00556,0.680938
0.0055625,0.680938
0.005565,0.680938
0.0055675,0.680422
0.00557,0.681454
0.0055725,0.682487
0.005575,0.682487
0.0055775,0.681971
0.00558,0.681971
0.0055825,0.682487
0.005585,0.681971
0.0055875,0.683003
0.00559,0.68352
0.0055925,0.684036
0.005595,0.683003
0.0055975,0.683003
0.0056,0.683003
0.0056025,0.682487
0.005605,0.68352
0.0056075,0.68352
0.00561,0.684552
0.0056125,0.685069
0.005615,0.684036
0.0056175,0.684036
0.00562,0.68352
0.0056225,0.685069
0.005625,0.685069
0.0056275,0.685585
0.00563,0.685069
0.0056325,0.685069
0.005635,0.685069
0.0056375,0.685069
0.00564,0.685585
0.0056425,0.685585
0.005645,0.686102
0.0056475,0.686618
0.00565,0.686102
0.0056525,0.686102
0.005655,0.686102
0.0056575,0.687134
0.00566,0.687651
0.0056625,0.687134
0.005665,0.686618
0.0056675,0.687134
0.00567,0.687134
0.0056725,0.686618
0.005675,0.688167
0.0056775,0.687651
0.00568,0.688167
0.0056825,0.688167
0.005685,0.688167
0.0056875,0.687651
0.00569,0.687651
0.0056925,0.688683
0.005695,0.6892
0.0056975,0.6892
0.0057,0.6892
0.0057025,0.6892
0.005705,0.6892
0.0057075,0.6892
0.00571,0.690749
0.0057125,0.690232
0.005715,0.689716
0.0057175,0.690749
0.00572,0.689716
0.0057225,0.690232
0.005725,0.690232
0.0057275,0.690749
0.00573,0.690749
0.0057325,0.690749
0.005735,0.691265
0.0057375,0.691265
0.00574,0.691265
0.0057425,0.690749
0.005745,0.691782
0.0057475,0.691265
0.00575,0.691782
0.0057525,0.692298
0.005755,0.692298
0.0057575,0.691782
0.00576,0.692298
0.0057625,0.692814
0.005765,0.692814
0.0057675,0.692814
0.00577,0.693847
0.0057725,0.693847
0.005775,0.693331
0.0057775,0.693331
0.00578,0.692814
0.0057825,0.693331
0.005785,0.693847
0.0057875,0.694363
0.00579,0.694363
0.0057925,0.694363
0.005795,0.694363
0.0057975,0.69488
0.0058,0.695396
0.0058025,0.695396
0.005805,0.695396
0.0058075,0.69488
0.00581,0.69488
0.0058125,0.695396
0.005815,0.695396
0.0058175,0.695913
0.00582,0.696429
0.0058225,0.695913
0.005825,0.695913
0.0058275,0.695913
0.00583,0.696945
0.0058325,0.696945
0.005835,0.696945
0.0058375,0.696945
0.00584,0.696429
0.0058425,0.696945
0.005845,0.696945
0.0058475,0.697978
0.00585,0.698494
0.0058525,0.697462
0.005855,0.697462
0.0058575,0.698494
0.00586,0.697978
0.0058625,0.698494
0.005865,0.698494
0.0058675,0.699011
0.00587,0.699011
0.0058725,0.699011
0.005875,0.699011
0.0058775,0.699011
0.00588,0.699527
0.0058825,0.700043
0.005885,0.700043
0.0058875,0.700043
0.00589,0.70056
0.0058925,0.70056
0.005895,0.700043
0.0058975,0.700043
0.0059,0.701076
0.0059025,0.70056
0.005905,0.701076
0.0059075,0.701076
0.00591,0.701076
0.0059125,0.701076
0.005915,0.701593
0.0059175,0.702625
0.00592,0.701593
0.0059225,0.702109
0.005925,0.701593
0.0059275,0.701593
0.00593,0.702109
0.0059325,0.701593
0.005935,0.703142
0.0059375,0.703142
0.00594,0.703142
0.0059425,0.703658
0.005945,0.703142
0.0059475,0.703142
0.00595,0.703142
0.0059525,0.704174
0.005955,0.704174
0.0059575,0.704174
0.00596,0.704691
0.0059625,0.703658
0.005965,0.704691
0.0059675,0.704174
0.00597,0.705207
0.0059725,0.704691
0.005975,0.705207
0.0059775,0.705207
0.00598,0.705207
0.0059825,0.704691
0.005985,0.704691
0.0059875,0.706756
0.00599,0.706756
0.0059925,0.705723
0.005995,0.70624
0.0059975,0.705723
0.006,0.70624
0.0060025,0.70624
0.006005,0.707789
0.0060075,0.707273
0.00601,0.707273
0.0060125,0.707273
0.006015,0.707273
0.0060175,0.707273
0.00602,0.707273
0.0060225,0.708305
0.006025,0.708305
0.0060275,0.708305
0.00603,0.708305
0.0060325,0.708822
0.006035,0.707789
0.0060375,0.708822
0.00604,0.708822
0.0060425,0.709338
0.006045,0.709338
0.0060475,0.709338
0.00605,0.709338
0.0060525,0.709854
0.006055,0.709338
0.0060575,0.709854
0.00606,0.710371
0.0060625,0.710371
0.006065,0.710371
0.0060675,0.710371
0.00607,0.709854
0.0060725,0.710887
0.006075,0.711404
0.0060775,0.71192
0.00608,0.710887
0.0060825,0.710887
0.006085,0.710887
0.0060875,0.711404
0.00609,0.71192
0.0060925,0.712436
0.006095,0.712436
0.0060975,0.71192
0.0061,0.712436
0.0061025,0.712436
0.006105,0.71192
0.0061075,0.712953
0.00611,0.712953
0.0061125,0.713469
0.006115,0.713469
0.0061175,0.712953
0.00612,0.712953
0.0061225,0.712436
0.006125,0.713469
0.0061275,0.713985
0.00613,0.715018
0.0061325,0.713985
0.006135,0.713469
0.0061375,0.713985
0.00614,0.714502
0.0061425,0.715018
0.006145,0.715534
0.0061475,0.715018
0.00615,0.715534
0.0061525,0.715018
0.006155,0.715534
0.0061575,0.715018
0.00616,0.716051
0.0061625,0.715534
0.006165,0.716051
0.0061675,0.716567
0.00617,0.716051
0.0061725,0.716051
0.006175,0.716051
0.0061775,0.717084
0.00618,0.716567
0.0061825,0.717084
0.006185,0.7176
0.0061875,0.7176
0.00619,0.717084
0.0061925,0.717084
0.006195,0.718116
0.0061975,0.718633
0.0062,0.718633
0.0062025,0.718116
0.006205,0.718116
0.0062075,0.718116
0.00621,0.718116
0.0062125,0.719665
0.006215,0.719149
0.0062175,0.719149
0.00622,0.719149
0.0062225,0.718633
0.006225,0.719149
0.0062275,0.719665
0.00623,0.720182
0.0062325,0.720698
0.006235,0.720182
0.0062375,0.720182
0.00624,0.720698
0.0062425,0.720182
0.006245,0.719665
0.0062475,0.721214
0.00625,0.721731
0.0062525,0.721214
0.006255,0.721214
0.0062575,0.721214
0.00626,0.720182
0.0062625,0.720182
0.006265,0.722247
0.0062675,0.721731
0.00627,0.722247
0.0062725,0.722247
0.006275,0.722247
0.0062775,0.722247
0.00628,0.722247
0.0062825,0.72328
0.006285,0.72328
0.0062875,0.72328
0.00629,0.722764
0.0062925,0.722764
0.006295,0.722764
0.0062975,0.723796
0.0063,0.723796
0.0063025,0.724313
0.006305,0.724313
0.0063075,0.724829
0.00631,0.723796
0.0063125,0.72328
0.006315,0.724313
0.0063175,0.724313
0.00632,0.725345
0.0063225,0.725345
0.006325,0.725345
0.0063275,0.724829
0.00633,0.725345
0.0063325,0.725862
0.006335,0.725862
0.0063375,0.725862
0.00634,0.726378
0.0063425,0.726378
0.006345,0.726378
0.0063475,0.725862
0.00635,0.726378
0.0063525,0.727411
0.006355,0.726378
0.0063575,0.726895
0.00636,0.727411
0.0063625,0.726895
0.006365,0.726895
0.0063675,0.727927
0.00637,0.727927
0.0063725,0.728444
0.006375,0.72896
0.0063775,0.728444
0.00638,0.727927
0.0063825,0.728444
0.006385,0.72896
0.0063875,0.72896
0.00639,0.729476
0.0063925,0.729476
0.006395,0.729476
0.0063975,0.729476
0.0064,0.72896
0.0064025,0.72896
0.006405,0.729993
0.0064075,0.729993
0.00641,0.729993
0.0064125,0.729993
0.006415,0.730509
0.0064175,0.731025
0.00642,0.730509
0.0064225,0.730509
0.006425,0.731025
0.0064275,0.731025
0.00643,0.731025
0.0064325,0.731025
0.006435,0.731025
0.0064375,0.731542
0.00644,0.731542
0.0064425,0.731542
0.006445,0.732058
0.0064475,0.732058
0.00645,0.732058
0.0064525,0.732058
0.006455,0.733091
0.0064575,0.733607
0.00646,0.732575
0.0064625,0.733091
0.006465,0.732575
0.0064675,0.732575
0.00647,0.732575
0.0064725,0.734124
0.006475,0.734124
0.0064775,0.733607
0.00648,0.734124
0.0064825,0.73464
0.006485,0.73464
0.0064875,0.734124
0.00649,0.73464
0.0064925,0.735156
0.006495,0.735156
0.0064975,0.735156
0.0065,0.73464
0.0065025,0.73464
0.006505,0.735156
0.0065075,0.736189
0.00651,0.736189
0.0065125,0.736189
0.006515,0.736189
0.0065175,0.736189
0.00652,0.736189
0.0065225,0.736705
0.006525,0.736705
0.0065275,0.736705
0.00653,0.737222
0.0065325,0.737222
0.006535,0.736705
0.0065375,0.737738
0.00654,0.737222
0.0065425,0.738255
0.006545,0.737738
0.0065475,0.738771
0.00655,0.738255
0.0065525,0.738255
0.006555,0.738255
0.0065575,0.738255
0.00656,0.739287
0.0065625,0.739287
0.006565,0.738771
0.0065675,0.739287
0.00657,0.739287
0.0065725,0.739287
0.006575,0.739804
0.0065775,0.739804
0.00658,0.739804
0.0065825,0.739804
0.006585,0.739804
0.0065875,0.74032
0.00659,0.739804
0.0065925,0.740836
0.006595,0.740836
0.0065975,0.740836
0.0066,0.741353
0.0066025,0.74032
0.006605,0.74032
0.0066075,0.741869
0.00661,0.741353
0.0066125,0.742386
0.006615,0.742386
0.0066175,0.741869
0.00662,0.742386
0.0066225,0.741353
0.006625,0.741869
0.0066275,0.742386
0.00663,0.742902
0.0066325,0.742902
0.006635,0.742386
0.0066375,0.742386
0.00664,0.742902
0.0066425,0.742902
0.006645,0.743418
0.0066475,0.744451
0.00665,0.743935
0.0066525,0.744967
0.006655,0.743935
0.0066575,0.743935
0.00666,0.744451
0.0066625,0.743935
0.006665,0.744967
0.0066675,0.745484
0.00667,0.744967
0.0066725,0.744967
0.006675,0.744967
0.0066775,0.744967
0.00668,0.745484
0.0066825,0.746
0.006685,0.746516
0.0066875,0.746516
0.00669,0.746516
0.0066925,0.746516
0.006695,0.745484
0.0066975,0.746516
0.0067,0.746516
0.0067025,0.746516
0.006705,0.747033
0.0067075,0.746516
0.00671,0.746516
0.0067125,0.747033
0.006715,0.747549
0.0067175,0.748066
0.00672,0.747549
0.0067225,0.748066
0.006725,0.748066
0.0067275,0.747549
0.00673,0.748066
0.0067325,0.749098
0.006735,0.749098
0.0067375,0.749615
0.00674,0.749098
0.0067425,0.749098
0.006745,0.748582
0.0067475,0.748582
0.00675,0.749615
0.0067525,0.749615
0.006755,0.749615
0.0067575,0.749615
0.00676,0.749615
0.0067625,0.750131
0.006765,0.749615
0.0067675,0.750647
0.00677,0.751164
0.0067725,0.750647
0.006775,0.750647
0.0067775,0.751164
0.00678,0.750647
0.0067825,0.751164
0.006785,0.75168
0.0067875,0.75168
0.00679,0.752196
0.0067925,0.752196
0.006795,0.75168
0.0067975,0.752196
0.0068,0.75168
0.0068025,0.753229
0.006805,0.753229
0.0068075,0.753746
0.00681,0.753229
0.0068125,0.753229
0.006815,0.753229
0.0068175,0.752713
0.00682,0.754778
0.0068225,0.753746
0.006825,0.753746
0.0068275,0.753746
0.00683,0.753746
0.0068325,0.753746
0.006835,0.754778
0.0068375,0.755295
0.00684,0.755811
0.0068425,0.754778
0.006845,0.754778
0.0068475,0.755295
0.00685,0.754778
0.0068525,0.755295
0.006855,0.756327
0.0068575,0.755295
0.00686,0.755295
0.0068625,0.756844
0.006865,0.755811
0.0068675,0.755811
0.00687,0.755811
0.0068725,0.756844
0.006875,0.75736
0.0068775,0.75736
0.00688,0.756327
0.0068825,0.756844
0.006885,0.756844
0.0068875,0.757877
0.00689,0.758393
0.0068925,0.758393
0.006895,0.757877
0.0068975,0.758393
0.0069,0.757877
0.0069025,0.757877
0.006905,0.758909
0.0069075,0.759426
0.00691,0.759426
0.0069125,0.759426
0.006915,0.759942
0.0069175,0.758393
0.00692,0.758909
0.0069225,0.759426
0.006925,0.759942
0.0069275,0.760458
0.00693,0.760458
0.0069325,0.760975
0.006935,0.760975
0.0069375,0.760458
0.00694,0.760458
0.0069425,0.760458
0.006945,0.760975
0.0069475,0.760458
0.00695,0.761491
0.0069525,0.760458
0.006955,0.761491
0.0069575,0.761491
0.00696,0.762007
0.0069625,0.762007
0.006965,0.762007
0.0069675,0.762007
0.00697,0.762524
0.0069725,0.761491
0.006975,0.762524
0.0069775,0.762524
0.00698,0.76304
0.0069825,0.763557
0.006985,0.76304
0.0069875,0.763557
0.00699,0.763557
0.0069925,0.763557
0.006995,0.764589
0.0069975,0.764073
0.007,0.764073
0.0070025,0.764589
0.007005,0.764073
0.0070075,0.764073
0.00701,0.764589
0.0070125,0.764589
0.007015,0.764589
0.0070175,0.765106
0.00702,0.765106
0.0070225,0.765106
0.007025,0.764589
0.0070275,0.765622
0.00703,0.766138
0.0070325,0.765622
0.007035,0.765622
0.0070375,0.766138
0.00704,0.766138
0.0070425,0.766138
0.007045,0.767171
0.0070475,0.766655
0.00705,0.767171
0.0070525,0.767171
0.007055,0.767171
0.0070575,0.767171
0.00706,0.767171
0.0070625,0.767687
0.007065,0.768204
0.0070675,0.768204
0.00707,0.767687
0.0070725,0.768204
0.007075,0.768204
0.0070775,0.768204
0.00708,0.76872
0.0070825,0.769237
0.007085,0.769237
0.0070875,0.769237
0.00709,0.76872
0.0070925,0.768204
0.007095,0.769237
0.0070975,0.770269
0.0071,0.770269
0.0071025,0.769753
0.007105,0.769753
0.0071075,0.769753
0.00711,0.770269
0.0071125,0.769753
0.007115,0.770786
0.0071175,0.770786
0.00712,0.770269
0.0071225,0.771302
0.007125,0.770786
0.0071275,0.770786
0.00713,0.770786
0.0071325,0.771818
0.007135,0.771818
0.0071375,0.772335
0.00714,0.772335
0.0071425,0.771818
0.007145,0.771302
0.0071475,0.771302
0.00715,0.772335
0.0071525,0.772851
0.007155,0.772851
0.0071575,0.772851
0.00716,0.773368
0.0071625,0.772851
0.007165,0.773368
0.0071675,0.773884
0.00717,0.773884
0.0071725,0.773884
0.007175,0.7744
0.0071775,0.773884
0.00718,0.773884
0.0071825,0.7744
0.007185,0.7744
0.0071875,0.774917
0.00719,0.775433
0.0071925,0.775433
0.007195,0.774917
0.0071975,0.7744
0.0072,0.775433
0.0072025,0.775949
0.007205,0.775949
0.0072075,0.775949
0.00721,0.775949
0.0072125,0.775949
0.007215,0.775433
0.0072175,0.776982
0.00722,0.777498
0.0072225,0.776982
0.007225,0.776982
0.0072275,0.776466
0.00723,0.776982
0.0072325,0.776982
0.007235,0.777498
0.0072375,0.777498
0.00724,0.777498
0.0072425,0.777498
0.007245,0.778015
0.0072475,0.778015
0.00725,0.778015
0.0072525,0.778531
0.007255,0.779048
0.0072575,0.779048
0.00726,0.778531
0.0072625,0.779048
0.007265,0.778531
0.0072675,0.779048
0.00727,0.78008
0.0072725,0.78008
0.007275,0.78008
0.0072775,0.78008
0.00728,0.78008
0.0072825,0.78008
0.007285,0.78008
0.0072875,0.781113
0.00729,0.781113
0.0072925,0.781629
0.007295,0.780597
0.0072975,0.780597
0.0073,0.781113
0.0073025,0.780597
0.007305,0.781629
0.0073075,0.782146
0.00731,0.781629
0.0073125,0.782146
0.007315,0.782146
0.0073175,0.781113
0.00732,0.781629
0.0073225,0.782662
0.007325,0.782662
0.0073275,0.783695
0.00733,0.782662
0.0073325,0.783179
0.007335,0.782662
0.0073375,0.782146
0.00734,0.783695
0.0073425,0.784211
0.007345,0.783695
0.0073475,0.783695
0.00735,0.784211
0.0073525,0.784211
0.007355,0.783695
0.0073575,0.784728
0.00736,0.784728
0.0073625,0.785244
0.007365,0.785244
0.0073675,0.785244
0.00737,0.784728
0.0073725,0.784728
0.007375,0.78576
0.0073775,0.786277
0.00738,0.786277
0.0073825,0.78576
0.007385,0.78576
0.0073875,0.78576
0.00739,0.78576
0.0073925,0.786793
0.007395,0.786277
0.0073975,0.786793
0.0074,0.787309
0.0074025,0.787309
0.007405,0.787309
0.0074075,0.787309
0.00741,0.787826
0.0074125,0.788342
0.007415,0.787826
0.0074175,0.787826
0.00742,0.787309
0.0074225,0.787826
0.007425,0.788859
0.0074275,0.789375
0.00743,0.789375
0.0074325,0.789375
0.007435,0.788859
0.0074375,0.789375
0.00744,0.788859
0.0074425,0.789375
0.007445,0.789891
0.0074475,0.790408
0.00745,0.789891
0.0074525,0.789375
0.007455,0.789891
0.0074575,0.789891
0.00746,0.790408
0.0074625,0.789891
0.007465,0.790408
0.0074675,0.790924
0.00747,0.790924
0.0074725,0.790408
0.007475,0.790924
0.0074775,0.79144
0.00748,0.792473
0.0074825,0.791957
0.007485,0.792473
0.0074875,0.791957
0.00749,0.79144
0.0074925,0.791957
0.007495,0.792473
0.0074975,0.792989
0.0075,0.792473
0.0075025,0.792989
0.007505,0.793506
0.0075075,0.792989
0.00751,0.792989
0.0075125,0.793506
0.007515,0.793506
0.0075175,0.794022
0.00752,0.794022
0.0075225,0.794022
0.007525,0.794539
0.0075275,0.794022
0.00753,0.794539
0.0075325,0.795571
0.007535,0.795055
0.0075375,0.795055
0.00754,0.795055
0.0075425,0.795055
0.007545,0.795055
0.0075475,0.796088
0.00755,0.796088
0.0075525,0.795571
0.007555,0.796088
0.0075575,0.796088
0.00756,0.796088
0.0075625,0.796088
0.007565,0.79712
0.0075675,0.79712
0.00757,0.79712
0.0075725,0.796604
0.007575,0.796604
0.0075775,0.79712
0.00758,0.79712
0.0075825,0.797637
0.007585,0.798153
0.0075875,0.798153
0.00759,0.798153
0.0075925,0.79867
0.007595,0.798153
0.0075975,0.79867
0.0076,0.79867
0.0076025,0.799186
0.007605,0.799186
0.0076075,0.799186
0.00761,0.799186
0.0076125,0.799186
0.007615,0.79867
0.0076175,0.800219
0.00762,0.799702
0.0076225,0.799702
0.007625,0.799702
0.0076275,0.800219
0.00763,0.800219
0.0076325,0.800219
0.007635,0.800735
0.0076375,0.800735
0.00764,0.801251
0.0076425,0.801251
0.007645,0.801251
0.0076475,0.801251
0.00765,0.801251
0.0076525,0.802284
0.007655,0.802284
0.0076575,0.802284
0.00766,0.802284
0.0076625,0.8028
0.007665,0.802284
0.0076675,0.801768
0.00767,0.8028
0.0076725,0.803317
0.007675,0.803317
0.0076775,0.803317
0.00768,0.803833
0.0076825,0.80435
0.007685,0.803833
0.0076875,0.80435
0.00769,0.803317
0.0076925,0.803833
0.007695,0.803833
0.0076975,0.803317
0.0077,0.803833
0.0077025,0.803317
0.007705,0.804866
0.0077075,0.805382
0.00771,0.804866
0.0077125,0.805382
0.007715,0.804866
0.0077175,0.804866
0.00772,0.805899
0.0077225,0.805899
0.007725,0.805899
0.0077275,0.805899
0.00773,0.805899
0.0077325,0.806415
0.007735,0.805899
0.0077375,0.806415
0.00774,0.806931
0.0077425,0.806415
0.007745,0.806931
0.0077475,0.806931
0.00775,0.806931
0.0077525,0.806931
0.007755,0.807964
0.0077575,0.80848
0.00776,0.807964
0.0077625,0.807964
0.007765,0.807964
0.0077675,0.807964
0.00777,0.807448
0.0077725,0.807964
0.007775,0.808997
0.0077775,0.808997
0.00778,0.80848
0.0077825,0.80848
0.007785,0.808997
0.0077875,0.809513
0.00779,0.809513
0.0077925,0.809513
0.007795,0.810546
0.0077975,0.81003
0.0078,0.808997
0.0078025,0.81003
0.007805,0.81003
0.0078075,0.810546
0.00781,0.810546
0.0078125,0.811062
0.007815,0.811062
0.0078175,0.810546
0.00782,0.810546
0.0078225,0.810546
0.007825,0.811579
0.0078275,0.812095
0.00783,0.812095
0.0078325,0.812095
0.007835,0.812611
0.0078375,0.812095
0.00784,0.812095
0.0078425,0.812611
0.007845,0.812611
0.0078475,0.812611
0.00785,0.812095
0.0078525,0.812611
0.007855,0.813128
0.0078575,0.813128
0.00786,0.814161
0.0078625,0.814161
0.007865,0.814677
0.0078675,0.814161
0.00787,0.813644
0.0078725,0.813644
0.007875,0.813644
0.0078775,0.815193
0.00788,0.814677
0.0078825,0.814677
0.007885,0.815193
0.0078875,0.814677
0.00789,0.814677
0.0078925,0.814677
0.007895,0.81571
0.0078975,0.81571
0.0079,0.816226
0.0079025,0.816226
0.007905,0.81571
0.0079075,0.81571
0.00791,0.816226
0.0079125,0.816226
0.007915,0.816742
0.0079175,0.816742
0.00792,0.817259
0.0079225,0.817259
0.007925,0.817259
0.0079275,0.817775
0.00793,0.817775
0.0079325,0.817775
0.007935,0.818291
0.0079375,0.817775
0.00794,0.817775
0.0079425,0.817775
0.007945,0.817775
0.0079475,0.818808
0.00795,0.818291
0.0079525,0.818808
0.007955,0.818808
0.0079575,0.818808
0.00796,0.818808
0.0079625,0.818808
0.007965,0.819841
0.0079675,0.819841
0.00797,0.819324
0.0079725,0.819841
0.007975,0.819324
0.0079775,0.820357
0.00798,0.819841
0.0079825,0.82139
0.007985,0.820873
0.0079875,0.820873
0.00799,0.820873
0.0079925,0.820873
0.007995,0.820873
0.0079975,0.82139
0.008,0.821906
0.0080025,0.82139
0.008005,0.820873
0.0080075,0.82139
0.00801,0.821906
0.0080125,0.821906
0.008015,0.822422
0.0080175,0.822422
0.00802,0.822939
0.0080225,0.823455
0.008025,0.823455
0.0080275,0.822422
0.00803,0.822422
0.0080325,0.823971
0.008035,0.823971
0.0080375,0.823971
0.00804,0.823455
0.0080425,0.823455
0.008045,0.823971
0.0080475,0.823971
0.00805,0.824488
0.0080525,0.825004
0.008055,0.825004
0.0080575,0.824488
0.00806,0.825004
0.0080625,0.825004
0.008065,0.824488
0.0080675,0.826037
0.00807,0.825521
0.0080725,0.826037
0.008075,0.825521
0.0080775,0.826037
0.00808,0.826037
0.0080825,0.825521
0.008085,0.826553
0.0080875,0.82707
0.00809,0.82707
0.0080925,0.82707
0.008095,0.82707
0.0080975,0.826553
0.0081,0.82707
0.0081025,0.827586
0.008105,0.828102
0.0081075,0.828102
0.00811,0.828102
0.0081125,0.828102
0.008115,0.828102
0.0081175,0.828102
0.00812,0.829135
0.0081225,0.829135
0.008125,0.829135
0.0081275,0.829135
0.00813,0.829135
0.0081325,0.829135
0.008135,0.829135
0.0081375,0.830168
0.00814,0.830168
0.0081425,0.830168
0.008145,0.829135
0.0081475,0.829652
0.00815,0.830168
0.0081525,0.830168
0.008155,0.830684
0.0081575,0.830168
0.00816,0.830684
0.0081625,0.830684
0.008165,0.830684
0.0081675,0.831201
0.00817,0.831201
0.0081725,0.831201
0.008175,0.831201
0.0081775,0.831717
0.00818,0.831201
0.0081825,0.831201
0.008185,0.831717
0.0081875,0.832233
0.00819,0.833266
0.0081925,0.833266
0.008195,0.833266
0.0081975,0.833266
0.0082,0.83275
0.0082025,0.83275
0.008205,0.833266
0.0082075,0.833782
0.00821,0.833782
0.0082125,0.834299
0.008215,0.833266
0.0082175,0.833782
0.00822,0.834299
0.0082225,0.833266
0.008225,0.834299
0.0082275,0.834815
0.00823,0.834299
0.0082325,0.834815
0.008235,0.834299
0.0082375,0.834815
0.00824,0.835848
0.0082425,0.835332
0.008245,0.835332
0.0082475,0.835848
0.00825,0.835848
0.0082525,0.835848
0.008255,0.835848
0.0082575,0.835848
0.00826,0.836364
0.0082625,0.837397
0.008265,0.837397
0.0082675,0.837397
0.00827,0.837397
0.0082725,0.837397
0.008275,0.837397
0.0082775,0.837913
0.00828,0.837397
0.0082825,0.837913
0.008285,0.837397
0.0082875,0.837397
0.00829,0.837913
0.0082925,0.83843
0.008295,0.838946
0.0082975,0.83843
0.0083,0.838946
0.0083025,0.838946
0.008305,0.839462
0.0083075,0.83843
0.00831,0.838946
0.0083125,0.839462
0.008315,0.839979
0.0083175,0.840495
0.00832,0.840495
0.0083225,0.839979
0.008325,0.839462
0.0083275,0.840495
0.00833,0.840495
0.0083325,0.841012
0.008335,0.840495
0.0083375,0.840495
0.00834,0.840495
0.0083425,0.840495
0.008345,0.841528
0.0083475,0.842044
0.00835,0.842044
0.0083525,0.842044
0.008355,0.842561
0.0083575,0.842044
0.00836,0.842044
0.0083625,0.842044
0.008365,0.842561
0.0083675,0.843077
0.00837,0.842561
0.0083725,0.842561
0.008375,0.843077
0.0083775,0.842561
0.00838,0.84411
0.0083825,0.84411
0.008385,0.84411
0.0083875,0.843593
0.00839,0.843593
0.0083925,0.84411
0.008395,0.843593
0.0083975,0.845143
0.0084,0.845143
0.0084025,0.844626
0.008405,0.844626
0.0084075,0.844626
0.00841,0.844626
0.0084125,0.845143
0.008415,0.846175
0.0084175,0.846175
0.00842,0.845659
0.0084225,0.846175
0.008425,0.845659
0.0084275,0.845143
0.00843,0.845143
0.0084325,0.846692
0.008435,0.847208
0.0084375,0.846692
0.00844,0.846692
0.0084425,0.845659
0.008445,0.846692
0.0084475,0.847724
0.00845,0.847724
0.0084525,0.847724
0.008455,0.847208
0.0084575,0.847724
0.00846,0.847724
0.0084625,0.847208
0.008465,0.847208
0.0084675,0.848757
0.00847,0.849273
0.0084725,0.848757
0.008475,0.848757
0.0084775,0.848757
0.00848,0.848757
0.0084825,0.848241
0.008485,0.850306
0.0084875,0.84979
0.00849,0.84979
0.0084925,0.84979
0.008495,0.84979
0.0084975,0.84979
0.0085,0.850306
0.0085025,0.850823
0.008505,0.850306
0.0085075,0.850306
0.00851,0.850306
0.0085125,0.850823
0.008515,0.850823
0.0085175,0.851339
0.00852,0.850823
0.0085225,0.851339
0.008525,0.851339
0.0085275,0.851339
0.00853,0.851339
0.0085325,0.851855
0.008535,0.851855
0.0085375,0.852888
0.00854,0.852888
0.0085425,0.852372
0.008545,0.852888
0.0085475,0.852372
0.00855,0.852372
0.0085525,0.852888
0.008555,0.853921
0.0085575,0.853404
0.00856,0.854437
0.0085625,0.854437
0.008565,0.853921
0.0085675,0.853404
0.00857,0.854437
0.0085725,0.85547
0.008575,0.854437
0.0085775,0.854953
0.00858,0.854953
0.0085825,0.854953
0.008585,0.854437
0.0085875,0.854437
0.00859,0.85547
0.0085925,0.855986
0.008595,0.856503
0.0085975,0.85547
0.0086,0.85547
0.0086025,0.85547
0.008605,0.856503
0.0086075,0.857019
0.00861,0.855986
0.0086125,0.857019
0.008615,0.857019
0.0086175,0.856503
0.00862,0.857019
0.0086225,0.857535
0.008625,0.857535
0.0086275,0.857535
0.00863,0.857535
0.0086325,0.858052
0.008635,0.857535
0.0086375,0.857019
0.00864,0.858568
0.0086425,0.859084
0.008645,0.859084
0.0086475,0.858568
0.00865,0.859084
0.0086525,0.858568
0.008655,0.859084
0.0086575,0.859084
0.00866,0.860117
0.0086625,0.859601
0.008665,0.859084
0.0086675,0.859601
0.00867,0.860117
0.0086725,0.859601
0.008675,0.860634
0.0086775,0.86115
0.00868,0.86115
0.0086825,0.86115
0.008685,0.86115
0.0086875,0.86115
0.00869,0.860634
0.0086925,0.861666
0.008695,0.862183
0.0086975,0.862183
0.0087,0.862183
0.0087025,0.861666
0.008705,0.862183
0.0087075,0.861666
0.00871,0.862699
0.0087125,0.862699
0.008715,0.862699
0.0087175,0.863215
0.00872,0.863215
0.0087225,0.862699
0.008725,0.862699
0.0087275,0.863732
0.00873,0.863732
0.0087325,0.863215
0.008735,0.863732
0.0087375,0.864248
0.00874,0.863732
0.0087425,0.863732
0.008745,0.864248
0.0087475,0.864764
0.00875,0.864764
0.0087525,0.864764
0.008755,0.864764
0.0087575,0.864764
0.00876,0.864764
0.0087625,0.865797
0.008765,0.865797
0.0087675,0.866314
0.00877,0.865797
0.0087725,0.865797
0.008775,0.865797
0.0087775,0.865797
0.00878,0.86683
0.0087825,0.86683
0.008785,0.86683
0.0087875,0.86683
0.00879,0.866314
0.0087925,0.86683
0.008795,0.86683
0.0087975,0.867863
0.0088,0.867863
0.0088025,0.867863
0.008805,0.868379
0.0088075,0.867863
0.00881,0.867863
0.0088125,0.867863
0.008815,0.868379
0.0088175,0.868379
0.00882,0.868379
0.0088225,0.868895
0.008825,0.868895
0.0088275,0.868895
0.00883,0.869412
0.0088325,0.869412
0.008835,0.869412
0.0088375,0.869412
0.00884,0.869412
0.0088425,0.868895
0.008845,0.868895
0.0088475,0.870444
0.00885,0.870961
0.0088525,0.870444
0.008855,0.870444
0.0088575,0.870961
0.00886,0.870444
0.0088625,0.870961
0.008865,0.871477
0.0088675,0.871477
0.00887,0.871477
0.0088725,0.871477
0.008875,0.871994
0.0088775,0.871477
0.00888,0.871477
0.0088825,0.871477
0.008885,0.87251
0.0088875,0.87251
0.00889,0.873026
0.0088925,0.873026
0.008895,0.873026
0.0088975,0.87251
0.0089,0.873026
0.0089025,0.873543
0.008905,0.873543
0.0089075,0.873026
0.00891,0.873543
0.0089125,0.873026
0.008915,0.873543
0.0089175,0.874575
0.00892,0.874575
0.0089225,0.874575
0.008925,0.874575
0.0089275,0.875608
0.00893,0.875608
0.0089325,0.874575
0.008935,0.875608
0.0089375,0.875608
0.00894,0.875608
0.0089425,0.876125
0.008945,0.875608
0.0089475,0.875608
0.00895,0.876125
0.0089525,0.876641
0.008955,0.876641
0.0089575,0.876641
0.00896,0.876641
0.0089625,0.876641
0.008965,0.877157
0.0089675,0.877157
0.00897,0.877157
0.0089725,0.877157
0.008975,0.877674
0.0089775,0.877674
0.00898,0.87819
0.0089825,0.87819
0.008985,0.877674
0.0089875,0.87819
0.00899,0.879223
0.0089925,0.878706
0.008995,0.878706
0.0089975,0.879223
0.009,0.878706
0.0090025,0.878706
0.009005,0.879223
0.0090075,0.879739
0.00901,0.879739
0.0090125,0.879739
0.009015,0.879739
0.0090175,0.879739
0.00902,0.879739
0.0090225,0.880772
0.009025,0.880772
0.0090275,0.880772
0.00903,0.880772
0.0090325,0.880255
0.009035,0.880772
0.0090375,0.881288
0.00904,0.880772
0.0090425,0.881805
0.009045,0.881288
0.0090475,0.882321
0.00905,0.881805
0.0090525,0.881288
0.009055,0.881288
0.0090575,0.882837
0.00906,0.882321
0.0090625,0.882837
0.009065,0.882321
0.0090675,0.882837
0.00907,0.882321
0.0090725,0.883354
0.009075,0.883354
0.0090775,0.883354
0.00908,0.88387
0.0090825,0.88387
0.009085,0.88387
0.0090875,0.88387
0.00909,0.88387
0.0090925,0.884903
0.009095,0.884903
0.0090975,0.884903
0.0091,0.884903
0.0091025,0.884903
0.009105,0.884903
0.0091075,0.884903
0.00911,0.885935
0.0091125,0.885935
0.009115,0.885935
0.0091175,0.885935
0.00912,0.885419
0.0091225,0.885419
0.009125,0.885935
0.0091275,0.886452
0.00913,0.886968
0.0091325,0.885935
0.009135,0.886452
0.0091375,0.886452
0.00914,0.886452
0.0091425,0.886968
0.009145,0.887485
0.0091475,0.887485
0.00915,0.888001
0.0091525,0.888001
0.009155,0.887485
0.0091575,0.886968
0.00916,0.888001
0.0091625,0.888517
0.009165,0.888517
0.0091675,0.889034
0.00917,0.88955
0.0091725,0.888517
0.009175,0.888517
0.0091775,0.889034
0.00918,0.890066
0.0091825,0.88955
0.009185,0.88955
0.0091875,0.890583
0.00919,0.88955
0.0091925,0.890066
0.009195,0.890066
0.0091975,0.890583
0.0092,0.890066
0.0092025,0.890583
0.009205,0.890583
0.0092075,0.890066
0.00921,0.890583
0.0092125,0.891099
0.009215,0.891616
0.0092175,0.891616
0.00922,0.891616
0.0092225,0.891616
0.009225,0.891616
0.0092275,0.891616
0.00923,0.892648
0.0092325,0.892648
0.009235,0.892648
0.0092375,0.892648
0.00924,0.892648
0.0092425,0.892648
0.009245,0.892648
0.0092475,0.893681
0.00925,0.893681
0.0092525,0.893681
0.009255,0.893681
0.0092575,0.894197
0.00926,0.893681
0.0092625,0.893681
0.009265,0.894714
0.0092675,0.894714
0.00927,0.89523
0.0092725,0.89523
0.009275,0.894714
0.0092775,0.89523
0.00928,0.894714
0.0092825,0.895746
0.009285,0.896263
0.0092875,0.895746
0.00929,0.896263
0.0092925,0.896263
0.009295,0.895746
0.0092975,0.895746
0.0093,0.896263
0.0093025,0.897296
0.009305,0.896779
0.0093075,0.897296
0.00931,0.896779
0.0093125,0.897812
0.009315,0.897296
0.0093175,0.897812
0.00932,0.897812
0.0093225,0.898328
0.009325,0.898328
0.0093275,0.897812
0.00933,0.897812
0.0093325,0.897812
0.009335,0.898845
0.0093375,0.899361
0.00934,0.898845
0.0093425,0.898328
0.009345,0.899361
0.0093475,0.898845
0.00935,0.898328
0.0093525,0.899361
0.009355,0.899361
0.0093575,0.899361
0.00936,0.899877
0.0093625,0.899877
0.009365,0.899877
0.0093675,0.899877
0.00937,0.900394
0.0093725,0.900394
0.009375,0.90091
0.0093775,0.900394
0.00938,0.900394
0.0093825,0.90091
0.009385,0.901426
0.0093875,0.901943
0.00939,0.901426
0.0093925,0.901943
0.009395,0.901943
0.0093975,0.902459
0.0094,0.901943
0.0094025,0.901943
0.009405,0.902976
0.0094075,0.903492
0.00941,0.902976
0.0094125,0.902459
0.009415,0.902976
0.0094175,0.902976
0.00942,0.903492
0.0094225,0.903492
0.009425,0.902976
0.0094275,0.904525
0.00943,0.903492
0.0094325,0.904008
0.009435,0.902976
0.0094375,0.903492
0.00944,0.904008
0.0094425,0.904008
0.009445,0.904525
0.0094475,0.904525
0.00945,0.904525
0.0094525,0.905041
0.009455,0.905041
0.0094575,0.905041
0.00946,0.905557
0.0094625,0.906074
0.009465,0.905557
0.0094675,0.906074
0.00947,0.905557
0.0094725,0.906074
0.009475,0.90659
0.0094775,0.906074
0.00948,0.907107
0.0094825,0.90659
0.009485,0.906074
0.0094875,0.90659
0.00949,0.907623
0.0094925,0.907623
0.009495,0.907623
0.0094975,0.907623
0.0095,0.908139
0.0095025,0.908139
0.009505,0.908139
0.0095075,0.908139
0.00951,0.908656
0.0095125,0.908656
0.009515,0.909172
0.0095175,0.908656
0.00952,0.908656
0.0095225,0.909172
0.009525,0.910205
0.0095275,0.910205
0.00953,0.910205
0.0095325,0.910205
0.009535,0.909172
0.0095375,0.909688
0.00954,0.910205
0.0095425,0.910721
0.009545,0.911237
0.0095475,0.910721
0.00955,0.910205
0.0095525,0.910721
0.009555,0.910721
0.0095575,0.910721
0.00956,0.911754
0.0095625,0.911237
0.009565,0.911237
0.0095675,0.911754
0.00957,0.910721
0.0095725,0.911754
0.009575,0.911754
0.0095775,0.913303
0.00958,0.912787
0.0095825,0.912787
0.009585,0.913303
0.0095875,0.913303
0.00959,0.913303
0.0095925,0.912787
0.009595,0.913819
0.0095975,0.913303
0.0096,0.913819
0.0096025,0.913819
0.009605,0.913303
0.0096075,0.913303
0.00961,0.913819
0.0096125,0.914336
0.009615,0.915368
0.0096175,0.914852
0.00962,0.914336
0.0096225,0.914336
0.009625,0.914336
0.0096275,0.914336
0.00963,0.915885
0.0096325,0.915368
0.009635,0.915368
0.0096375,0.915885
0.00964,0.915885
0.0096425,0.915368
0.009645,0.915885
0.0096475,0.915885
0.00965,0.915885
0.0096525,0.916917
0.009655,0.916917
0.0096575,0.916917
0.00966,0.916917
0.0096625,0.916917
0.009665,0.91795
0.0096675,0.917434
0.00967,0.917434
0.0096725,0.91795
0.009675,0.917434
0.0096775,0.917434
0.00968,0.917434
0.0096825,0.918983
0.009685,0.91795
0.0096875,0.918983
0.00969,0.918983
0.0096925,0.918983
0.009695,0.918467
0.0096975,0.918983
0.0097,0.920016
0.0097025,0.919499
0.009705,0.920016
0.0097075,0.919499
0.00971,0.920016
0.0097125,0.920016
0.009715,0.919499
0.0097175,0.920532
0.00972,0.920532
0.0097225,0.920532
0.009725,0.920532
0.0097275,0.920532
0.00973,0.920016
0.0097325,0.921048
0.009735,0.921565
0.0097375,0.921048
0.00974,0.921048
0.0097425,0.921565
0.009745,0.921565
0.0097475,0.922081
0.00975,0.922598
0.0097525,0.922598
0.009755,0.922598
0.0097575,0.922598
0.00976,0.922598
0.0097625,0.923114
0.009765,0.922081
0.0097675,0.923114
0.00977,0.923114
0.0097725,0.923114
0.009775,0.92363
0.0097775,0.92363
0.00978,0.92363
0.0097825,0.92363
0.009785,0.924147
0.0097875,0.924147
0.00979,0.924663
0.0097925,0.924147
0.009795,0.924147
0.0097975,0.924147
0.0098,0.924147
0.0098025,0.925179
0.009805,0.925696
0.0098075,0.925179
0.00981,0.925696
0.0098125,0.926212
0.009815,0.925696
0.0098175,0.925696
0.00982,0.925696
0.0098225,0.926728
0.009825,0.926728
0.0098275,0.926728
0.00983,0.926728
0.0098325,0.926728
0.009835,0.926728
0.0098375,0.927761
0.00984,0.927761
0.0098425,0.927761
0.009845,0.927761
0.0098475,0.927245
0.00985,0.928278
0.0098525,0.927761
0.009855,0.928278
0.0098575,0.928278
0.00986,0.928278
0.0098625,0.928278
0.009865,0.928794
0.0098675,0.928794
0.00987,0.928794
0.0098725,0.929827
0.009875,0.929827
0.0098775,0.929827
0.00988,0.929827
0.0098825,0.930343
0.009885,0.92931
0.0098875,0.92931
0.00989,0.930859
0.0098925,0.930859
0.009895,0.930859
0.0098975,0.930859
0.0099,0.930859
0.0099025,0.930343
0.009905,0.930859
0.0099075,0.931376
0.00991,0.932408
0.0099125,0.932408
0.009915,0.931892
0.0099175,0.931892
0.00992,0.931376
0.0099225,0.931892
0.009925,0.932925
0.0099275,0.932925
0.00993,0.932408
0.0099325,0.932925
0.009935,0.932408
0.0099375,0.932408
0.00994,0.932408
0.0099425,0.933441
0.009945,0.933441
0.0099475,0.933958
0.00995,0.933441
0.0099525,0.933958
0.009955,0.933441
0.0099575,0.934474
0.00996,0.933958
0.0099625,0.93499
0.009965,0.934474
0.0099675,0.934474
0.00997,0.93499
0.0099725,0.93499
0.009975,0.93499
0.0099775,0.93499
0.00998,0.936023
0.0099825,0.935507
0.009985,0.93499
0.0099875,0.936023
0.00999,0.936023
0.0099925,0.936023
0.009995,0.936023
0.0099975,0.936023
0.01,0.937056
0.0100025,0.937056
0.010005,0.937056
0.0100075,0.936539
0.01001,0.937056
0.0100125,0.937572
0.010015,0.938089
0.0100175,0.937056
0.01002,0.937572
0.0100225,0.937572
0.010025,0.937572
0.0100275,0.938089
0.01003,0.937572
0.0100325,0.938089
0.010035,0.938605
0.0100375,0.938605
0.01004,0.938605
0.0100425,0.938605
0.010045,0.939121
0.0100475,0.939638
0.01005,0.939638
0.0100525,0.939121
0.010055,0.939638
0.0100575,0.939121
0.01006,0.940154
0.0100625,0.94067
0.010065,0.940154
0.0100675,0.94067
0.01007,0.94067
0.0100725,0.94067
0.010075,0.94067
0.0100775,0.941187
0.01008,0.942219
0.0100825,0.941703
0.010085,0.941703
0.0100875,0.941187
0.01009,0.941703
0.0100925,0.941187
0.010095,0.941703
0.0100975,0.942219
0.0101,0.942736
0.0101025,0.942736
0.010105,0.942736
0.0101075,0.942219
0.01011,0.942219
0.0101125,0.942736
0.010115,0.943252
0.0101175,0.943769
0.01012,0.943252
0.0101225,0.943769
0.010125,0.943252
0.0101275,0.943252
0.01013,0.943769
0.0101325,0.944801
0.010135,0.944801
0.0101375,0.944801
0.01014,0.944801
0.0101425,0.944801
0.010145,0.944801
0.0101475,0.945318
0.01015,0.945318
0.0101525,0.945834
0.010155,0.945318
0.0101575,0.945834
0.01016,0.945834
0.0101625,0.945318
0.010165,0.945834
0.0101675,0.94635
0.01017,0.946867
0.0101725,0.94635
0.010175,0.946867
0.0101775,0.94635
0.01018,0.94635
0.0101825,0.94635
0.010185,0.947383
0.0101875,0.947383
0.01019,0.947383
0.0101925,0.947383
0.010195,0.9479
0.0101975,0.947383
0.0102,0.9479
0.0102025,0.948932
0.010205,0.948932
0.0102075,0.948416
0.01021,0.948416
0.0102125,0.948416
0.010215,0.948416
0.0102175,0.949449
0.01022,0.949449
0.0102225,0.948932
0.010225,0.949449
0.0102275,0.948932
0.01023,0.948932
0.0102325,0.948932
0.010235,0.949449
0.0102375,0.950481
0.01024,0.950481
